#Y dist(nm)	Y force(pN)
0.000000	0.544500
1.177767	0.461900
2.920267	0.276200
-2.464033	0.501200
3.979583	0.075400
3.900200	0.007200
-3.956367	0.456100
3.087750	-0.007800
-8.106733	0.614000
-20.365217	1.210000
-5.709233	0.339500
-8.387550	0.473100
-10.427767	0.570700
-3.860367	0.053200
-15.520667	0.712300
-15.970133	0.643100
-15.731517	0.637000
-7.283333	0.149300
-11.221517	0.366100
-13.972933	0.425300
-12.134600	0.248100
-25.957917	0.985000
-20.319817	0.715600
-17.116117	0.524200
-14.269783	0.345200
-6.746650	-0.191400
-7.218433	-0.249100
-18.715433	0.383600
-24.084150	0.679200
-20.530117	0.454600
-26.802383	0.720200
-30.101117	0.894100
-14.733250	-0.068700
-22.133417	0.379300
-19.562200	0.203100
-25.625367	0.535900
-30.326517	0.755500
-31.537133	0.824900
-26.648467	0.468400
-27.125383	0.488000
-24.770200	0.331800
-30.967167	0.700900
-25.006650	0.183300
-37.959167	0.921400
-34.014133	0.677300
-32.209067	0.581500
-31.344450	0.411300
-37.666550	0.750600
-25.488317	-0.058700
-35.588517	0.549100
-34.737267	0.484300
-39.149867	0.723400
-39.362100	0.642600
-45.127150	0.929700
-35.306083	0.340400
-40.585733	0.577400
-35.456567	0.256600
-37.452067	0.369100
-45.766733	0.852500
-35.087333	0.087200
-39.868750	0.350400
-48.336850	0.742800
-43.785483	0.474500
-37.267200	0.049200
-40.757067	0.236800
-45.839317	0.442600
-44.006117	0.322900
-49.791700	0.644100
-46.656650	0.431400
-57.031783	0.965000
-55.527833	0.819800
-41.152817	-0.077900
-50.068717	0.424900
-42.048133	-0.064000
-48.685467	0.298900
-48.852333	0.283100
-51.444733	0.398300
-60.092600	0.886800
-63.467717	1.027000
-52.000300	0.339900
-48.677417	0.106000
-48.509450	0.077700
-57.515517	0.482800
-61.311450	0.676800
-61.153100	0.650400
-60.322917	0.592900
-57.758717	0.436300
-54.866200	0.237300
-52.107317	-0.108200
-54.221633	-0.002800
-63.977133	0.543200
-57.854583	0.154100
-61.236433	0.271100
-59.564217	0.124900
-57.643933	-0.053500
-56.616900	-0.157200
-62.827300	0.192300
-69.718317	0.592300
-79.295317	1.006000
-76.451167	0.829000
-69.116750	0.401400
-66.140417	0.209500
-68.770433	0.334700
-67.336250	0.202200
-58.301283	-0.352000
-76.695767	0.694000
-74.416100	0.558000
-77.112950	0.716700
-74.755950	0.555900
-72.644700	0.301800
-75.862133	0.454400
-75.862017	0.412600
-77.661883	0.479600
-73.256650	0.226500
-76.002983	0.364700
-74.744967	0.124900
-82.985317	0.591700
-85.729733	0.729800
-86.715917	0.800800
-87.394150	0.769500
-81.200600	0.311400
-84.608350	0.504000
-91.020867	0.874600
-80.085767	0.215200
-81.415483	0.280100
-79.916333	0.131600
-83.163400	0.221700
-83.356833	0.193700
-81.423600	0.017700
-85.610350	0.238800
-83.475700	0.096000
-79.187683	-0.190600
-85.128667	0.005200
-91.854917	0.397600
-84.684867	-0.092300
-90.277733	0.222500
-92.885483	0.367400
-92.789633	0.362900
-92.077583	0.207500
-94.838550	0.339900
-89.278400	-0.024600
-93.283017	0.223900
-99.646950	0.493800
-98.916350	0.404400
-104.723300	0.686100
-99.134933	0.356900
-99.628400	0.402900
-102.232283	0.539900
-105.210483	0.650900
-117.347050	1.315200
-107.550067	0.721300
-100.515683	0.273800
-108.353367	0.725800
-106.521200	0.630900
-100.440050	0.247500
-110.782333	0.730400
-117.692083	1.135100
-115.796417	1.027000
-114.023350	0.917700
-107.712367	0.417400
-109.152383	0.464600
-115.633833	0.784400
-116.192833	0.819500
-115.052817	0.746800
-112.453183	0.566900
-108.695000	0.264900
-113.172767	0.512200
-114.652450	0.552900
-106.943400	0.069300
-116.302733	0.592700
-114.718917	0.508300
-114.442983	0.324200
-113.236833	0.239600
-115.299083	0.321200
-115.568167	0.337900
-113.605533	0.139100
-121.692400	0.519300
-114.284183	0.047900
-116.698733	0.134600
-112.843983	-0.123700
-121.573067	0.358300
-113.381950	-0.158400
-119.150283	0.065900
-120.999083	0.131600
-119.175083	-0.038200
-119.767933	-0.021100
-122.669750	0.158100
-126.668650	0.392400
-117.388383	-0.312700
-131.534167	0.512200
-138.729250	0.929100
-132.203767	0.558700
-130.509650	0.339900
-128.711717	0.178600
-130.413900	0.240300
-131.642333	0.332000
-116.857283	-0.539500
-121.575750	-0.299100
-135.423733	0.470000
-134.329917	0.320500
-129.943133	0.013700
-132.093000	0.089700
-131.525783	0.043400
-132.280583	0.087500
-133.996267	0.157300
-130.599567	-0.174800
-138.172350	0.275700
-140.985600	0.440400
-140.854200	0.396900
-144.904233	0.530000
-137.998700	0.109500
-135.157683	-0.093700
-142.406850	0.305100
-148.382750	0.675600
-138.525000	0.082200
-151.796500	0.746400
-151.079967	0.670300
-147.916500	0.426000
-142.435400	0.088200
-144.154217	0.142600
-145.211867	0.178600
-151.568350	0.511200
-152.495050	0.534600
-152.860967	0.528700
-150.900267	0.437500
-146.584350	0.052200
-153.217350	0.370500
-145.689883	-0.106900
-153.863983	0.347600
-159.675733	0.617900
-156.621683	0.497300
-153.239067	0.284800
-158.679167	0.553000
-162.827800	0.767400
-166.359633	0.935000
-158.026183	0.416600
-156.089800	0.272400
-155.262533	0.196700
-159.894283	0.345200
-161.745583	0.443900
-152.271933	-0.134200
-147.450183	-0.448900
-163.387700	0.357600
-161.642450	0.238800
-161.157833	0.130100
-162.174067	0.184600
-160.574267	0.073900
-155.500617	-0.237800
-166.226500	0.270600
-166.489800	0.242400
-166.942450	0.210900
-167.389717	0.224500
-168.214917	0.266500
-160.991983	-0.173500
-169.777183	0.179900
-176.034117	0.555700
-175.887750	0.559500
-174.338883	0.464600
-174.010967	0.355600
-177.539033	0.488300
-175.434867	0.337900
-171.519167	0.101800
-171.645167	0.099400
-170.827950	0.022200
-181.626300	0.635700
-183.130500	0.612300
-177.585533	0.263900
-174.391467	0.043000
-179.559250	0.339300
-173.406250	-0.038700
-178.421917	0.248500
-186.105300	0.549000
-188.416500	0.685800
-171.643233	-0.317200
-182.032850	0.304500
-183.940917	0.308800
-186.606383	0.409400
-178.625383	-0.153100
-175.013083	-0.353200
-182.884600	0.107400
-182.096000	0.016500
-183.762550	0.058800
-181.820200	-0.168300
-182.432317	-0.189800
-185.320383	-0.054700
-190.962117	0.267700
-191.711233	0.306500
-192.686333	0.295100
-199.755200	0.622500
-191.212183	0.103100
-189.459000	-0.017100
-192.014000	0.045000
-192.879633	0.020600
-199.482100	0.400800
-185.007767	-0.526400
-194.271883	0.027800
-199.532167	0.315400
-196.306433	0.111500
-206.614600	0.612000
-203.013033	0.377300
-216.384950	1.125900
-209.114183	0.682100
-199.051967	0.087100
-203.162850	0.326100
-204.622583	0.285500
-197.781983	-0.164500
-206.162150	0.318900
-202.501850	0.118500
-207.387617	0.429100
-207.711917	0.397600
-196.364850	-0.270300
-205.692067	0.284800
-206.639817	0.210400
-216.216933	0.628400
-214.514150	0.522000
-214.288150	0.452400
-208.898917	0.108400
-209.185683	0.106100
-206.804233	-0.055900
-213.672833	0.347000
-214.255550	0.341400
-217.730867	0.436900
-226.876017	0.959200
-222.253967	0.697000
-219.224667	0.510400
-210.067000	-0.164700
-213.063183	-0.019000
-214.138583	-0.046900
-210.334950	-0.272400
-208.127350	-0.417600
-212.160317	-0.185900
-215.911350	-0.027900
-219.679117	0.159100
-216.810533	-0.065500
-220.344767	0.135400
-219.485083	0.098600
-217.792517	-0.037700
-222.082367	0.064000
-220.151567	-0.062600
-244.057667	1.373200
-228.275683	0.389000
-224.265667	0.060400
-229.284700	0.251400
-234.639617	0.530800
-231.274967	0.305800
-226.691267	0.026500
-231.341200	0.282900
-229.280267	0.117400
-229.058700	-0.009000
-230.516717	0.040900
-237.003400	0.381900
-236.354183	0.317600
-233.312667	0.136600
-242.205900	0.646500
-237.631333	0.324800
-241.009883	0.527300
-229.851500	-0.148800
-234.366333	0.095300
-232.443917	-0.038900
-233.837300	0.049800
-239.601900	0.181500
-242.075100	0.320100
-242.839200	0.360600
-238.060900	0.050700
-242.793433	0.280100
-241.737283	0.196100
-237.964967	-0.058700
-239.833167	0.047500
-236.118100	-0.239100
-240.073600	-0.077100
-248.217333	0.352700
-243.372133	0.002900
-249.314400	0.345900
-247.282583	0.211400
-248.899333	0.251600
-248.678000	0.144600
-247.239033	0.027500
-256.814417	0.537700
-260.516267	0.751600
-263.350133	0.922100
-251.203200	0.188700
-256.461800	0.440700
-253.502667	0.237400
-248.191500	-0.121200
-247.814717	-0.179300
-243.030650	-0.490500
-252.432600	0.035700
-258.847650	0.336900
-265.053517	0.682600
-258.680650	0.248100
-258.374217	0.195400
-263.304117	0.463300
-257.887483	0.141500
-256.036667	-0.050300
-254.612767	-0.223100
-262.117850	0.198300
-258.439183	-0.013600
-256.087433	-0.209200
-261.667183	0.066200
-260.004983	-0.055900
-264.042600	0.112800
-260.074983	-0.144400
-256.186467	-0.406100
-259.826550	-0.205200
-254.819067	-0.476000
-262.522250	-0.042300
-252.188267	-0.621800
-260.998400	-0.107700
-258.008700	-0.313200
-260.746183	-0.164800
-261.551467	0.005500
-262.016967	0.033100
-259.957600	-0.097200
-267.781950	0.375300
-261.329783	0.084800
-260.706983	0.071000
-263.608683	0.290600
-263.078350	0.261900
-260.498067	0.091900
-260.061733	0.069800
-250.840833	-0.368200
-260.191117	0.199600
-259.665350	0.163800
-263.787033	0.408800
-262.379900	0.359100
-254.345167	-0.008600
-251.853217	-0.171800
-264.878267	0.657400
-259.614333	0.333800
-258.978333	0.311600
-253.828000	-0.009300
-258.317517	0.378400
-258.354200	0.391500
-253.098317	0.126400
-256.231717	0.315700
-250.214283	-0.053500
-257.889217	0.376600
-251.744333	0.101300
-252.676817	0.193600
-252.405150	0.237600
-260.166383	0.681500
-253.965267	0.326800
-257.586817	0.542500
-247.608133	0.030500
-255.895933	0.564200
-254.169850	0.492000
-256.365450	0.598200
-251.706133	0.371000
-250.012667	0.342700
-251.469133	0.456800
-253.409217	0.585700
-245.636117	0.121900
-243.547817	-0.015200
-252.435700	0.512100
-253.805733	0.737900
-255.401250	0.837300
-244.394233	0.228800
-250.762183	0.616100
-248.144350	0.451200
-245.500500	0.291000
-243.420483	0.333200
-244.125050	0.360600
-242.448133	0.249200
-244.684200	0.396300
-240.320400	0.237600
-245.891417	0.584200
-232.671267	-0.177200
-245.007583	0.551900
-244.523867	0.531400
-244.398583	0.508100
-234.374350	-0.007800
-243.418617	0.571000
-235.880517	0.103900
-241.418483	0.464600
-242.505367	0.522700
-232.321750	-0.084900
-239.026167	0.367600
-236.597983	0.296600
-237.597233	0.341900
-246.529417	0.864400
-247.274900	0.923100
-234.567900	0.301800
-231.663200	0.150000
-223.769483	-0.289000
-233.718117	0.289000
-237.419483	0.498200
-232.100650	0.166800
-231.895583	0.280100
-233.815217	0.403600
-226.512083	-0.051100
-226.316267	-0.077900
-223.275783	-0.196000
-230.672783	0.253400
-224.474200	-0.089400
-233.267517	0.427600
-224.492000	-0.102900
-234.847900	0.508800
-236.556400	0.717900
-232.884750	0.552300
-230.824450	0.471000
-230.701100	0.452700
-232.878783	0.586400
-227.237233	0.253400
-228.875100	0.404100
-226.273600	0.318600
-227.289533	0.399500
-223.073800	0.159300
-230.315233	0.588500
-228.127933	0.458600
-223.119483	0.167600
-223.999050	0.340800
-212.676850	-0.337500
-219.593717	0.073000
-223.046617	0.281200
-216.273517	-0.037700
-221.117033	0.293300
-220.131650	0.235800
-216.364333	0.020000
-222.219267	0.467500
-225.492800	0.650700
-210.843967	-0.187700
-223.647283	0.604100
-218.330083	0.324200
-218.863767	0.297700
-216.849267	0.181900
-220.390500	0.403500
-226.721533	0.820100
-226.957950	0.924000
-226.826633	0.971900
-229.340817	1.150900
-216.805967	0.446800
-218.052167	0.599200
-215.451000	0.482400
-212.691233	0.364400
-210.442667	0.230500
-212.369617	0.319300
-213.885433	0.423800
-220.614617	0.941200
-215.483183	0.620900
-216.530817	0.750100
-204.692133	0.024500
-206.901483	0.152300
-208.308017	0.233500
-201.740333	-0.037000
-212.948617	0.627700
-204.749250	0.147600
-207.713800	0.318600
-203.302150	0.146700
-205.579333	0.314300
-204.185100	0.279600
-209.581167	0.595600
-207.682467	0.468400
-203.357683	0.211400
-209.286783	0.622700
-205.911167	0.480400
-204.204050	0.391500
-208.027033	0.649400
-202.517083	0.314300
-195.589333	-0.109000
-204.923883	0.477500
-202.955067	0.386500
-206.383183	0.606500
-206.649933	0.656600
-208.621317	0.754300
-205.697317	0.592300
-209.652300	0.854700
-201.958883	0.494300
-199.725400	0.339300
-200.909350	0.416100
-207.475983	0.821600
-192.961900	0.120900
-195.486283	0.250700
-189.378833	-0.128200
-195.510583	0.272600
-190.626667	0.103900
-192.580017	0.199600
-192.834017	0.256300
-198.696167	0.627100
-194.475533	0.423800
-195.491783	0.477200
-192.447883	0.329000
-198.521967	0.693700
-194.436250	0.555000
-192.007483	0.413300
-190.583600	0.344400
-197.131850	0.724800
-191.935717	0.465400
-187.985217	0.265300
-184.582967	0.081400
-192.337733	0.558200
-193.604050	0.645900
-193.347200	0.627600
-195.702533	0.778700
-189.087883	0.421100
-186.631133	0.291200
-188.183567	0.417400
-184.884000	0.232800
-189.713500	0.516900
-196.517467	0.925900
-203.307317	1.483300
-195.521600	1.049700
-195.030417	1.037500
-178.539917	0.084100
-185.431350	0.519300
-185.517567	0.619000
-180.519017	0.397600
-181.540300	0.446100
-183.365467	0.527500
-190.849583	0.983600
-182.672283	0.546200
-177.173617	0.325300
-183.965867	0.750100
-178.786050	0.447600
-176.803950	0.343500
-182.925033	0.716600
-177.232733	0.395900
-170.971100	0.118200
-175.205900	0.375900
-171.431733	0.151100
-176.428383	0.432800
-175.726167	0.506800
-174.955533	0.475100
-177.410833	0.664400
-170.832583	0.250700
-173.428817	0.387700
-168.655633	0.113600
-168.281533	0.208100
-168.904917	0.279400
-160.062467	-0.252800
-164.804133	0.020000
-177.551600	0.778500
-168.335367	0.212500
-176.865100	0.796200
-174.009633	0.653300
-176.815583	0.836600
-171.264650	0.513000
-171.677367	0.551500
-166.995050	0.310200
-166.099267	0.262900
-164.192200	0.157800
-167.861617	0.390100
-162.181367	0.020800
-173.282367	0.735400
-164.177367	0.305200
-163.771833	0.326600
-163.298583	0.336800
-164.229667	0.397600
-168.858033	0.684800
-164.298117	0.436300
-157.771483	0.172100
-163.567750	0.552300
-157.848933	0.206900
-157.255650	0.183900
-154.988000	0.208800
-164.473250	0.771300
-161.922850	0.635400
-163.835883	0.737900
-159.010600	0.635400
-156.969583	0.489200
-158.452183	0.610400
-162.330333	0.868400
-157.455417	0.594700
-150.226150	0.180600
-152.295333	0.288200
-154.053300	0.383400
-147.933517	0.051400
-146.587100	0.068400
-148.679233	0.187100
-149.620767	0.218500
-145.789467	0.001300
-147.935683	0.234200
-141.712700	-0.148800
-155.454567	0.738100
-153.924433	0.667700
-142.900767	0.018700
-151.183733	0.477500
-147.982100	0.416700
-148.776133	0.486800
-148.669400	0.534000
-143.991017	0.270100
-143.346367	0.207400
-149.503550	0.567900
-135.437500	-0.166200
-140.020567	0.103900
-139.579800	0.066000
-146.177550	0.458100
-141.749367	0.260500
-142.572517	0.364300
-134.508600	-0.095400
-139.115467	0.184300
-134.456950	-0.087900
-142.385067	0.365500
-141.192133	0.324200
-138.846417	0.318100
-140.527517	0.427000
-137.762367	0.285700
-137.276317	0.244600
-135.966417	0.236800
-134.650417	0.158200
-144.569200	0.785700
-137.376817	0.350800
-138.389050	0.440700
-141.567083	0.634700
-141.602433	0.664400
-132.958133	0.160700
-131.925000	0.173100
-138.160933	0.575900
-135.243050	0.392700
-133.255633	0.291500
-138.786417	0.771100
-140.697833	0.911000
-136.754867	0.694000
-135.329267	0.602200
-137.108450	0.869700
-139.119917	1.012300
-137.039500	0.916500
-128.143050	0.405000
-126.323483	0.298400
-137.352483	0.971600
-128.001667	0.401800
-125.669517	0.259900
-126.614700	0.314400
-123.939433	0.218300
-121.201900	0.061200
-131.484483	0.677000
-135.370000	0.923100
-130.488050	0.762300
-123.236767	0.374500
-123.225317	0.393400
-121.082083	0.274400
-111.490833	-0.290200
-123.529017	0.416500
-117.249917	0.137500
-131.076700	1.001400
-116.194483	0.149300
-119.252617	0.342700
-125.853683	0.726500
-127.573750	0.852000
-126.395783	0.922100
-116.622300	0.350700
-120.290950	0.572700
-116.840600	0.350700
-120.597917	0.685300
-115.295683	0.426500
-124.163433	0.985700
-125.656850	1.124400
-123.803367	1.022500
-118.591667	0.721600
-121.631267	0.915100
-121.658917	0.963100
-120.078500	0.905100
-116.756317	0.722800
-124.134183	1.177400
-120.123283	1.088600
-119.225017	1.051000
-118.186667	1.058500
-109.749167	0.539500
-103.113033	0.151100
-104.095367	0.203200
-103.885817	0.288700
-116.356733	1.046600
-106.449750	0.491100
-109.541983	0.699500
-108.242433	0.620900
-105.475300	0.458100
-120.370917	1.394200
-106.658233	0.560900
-107.774650	0.635700
-100.760217	0.214000
-105.771867	0.601000
-100.582183	0.423200
-98.685033	0.340700
-101.992050	0.546000
-97.996067	0.305800
-100.235300	0.433800
-105.123283	0.730700
-105.666333	0.887000
-100.381733	0.575900
-108.342800	1.092600
-103.974917	0.838900
-99.639083	0.575900
-96.917967	0.423400
-101.151517	0.783100
-99.599150	0.717600
-93.779167	0.400600
-87.822767	0.047500
-98.557633	0.667700
-96.802367	0.570100
-97.116850	0.736800
-98.289133	0.812300
-92.548450	0.471000
-93.132967	0.526600
-98.130150	0.889800
-96.521600	0.884100
-92.292150	0.640500
-103.438567	1.324900
-93.503017	0.727600
-90.298250	0.543600
-90.860017	0.608200
-91.396750	0.774600
-99.648183	1.282700
-86.154833	0.507800
-92.733317	0.925900
-89.488367	0.726100
-94.475617	1.022500
-86.012350	0.665100
-92.740733	1.077500
-87.526683	0.770000
-87.543283	0.759800
-90.742633	1.009100
-88.795183	0.920900
-89.438950	1.011300
-83.692417	0.682600
-78.614700	0.390600
-86.896333	0.880100
-85.501367	0.901900
-86.167867	0.962200
-91.926867	1.326400
-85.846583	0.998600
-91.532900	1.335000
-82.103217	0.786400
-79.264833	0.671300
-78.405567	0.712900
-75.141883	0.529100
-77.574283	0.710600
-72.064067	0.378100
-77.452867	0.701800
-76.269600	0.638100
-74.311733	0.647000
-78.617133	0.887600
-73.714967	0.600100
-74.299867	0.642400
-74.127300	0.757800
-80.105583	1.127000
-73.281900	0.746100
-79.675383	1.125500
-59.726550	-0.060000
-70.085667	0.538900
-73.007333	0.824000
-73.693933	0.901700
-68.794333	0.667700
-63.014933	0.313700
-74.872417	1.007500
-71.132683	0.787100
-60.894250	0.240300
-69.451883	0.728000
-69.337300	0.738900
-74.201217	1.070500
-66.273567	0.642400
-66.672333	0.790700
-66.173300	0.768000
-64.035200	0.684000
-67.124817	0.868900
-66.296117	0.828700
-61.740767	0.560200
-59.258100	0.468000
-72.778283	1.285100
-60.851233	0.637700
-62.469233	0.758600
-66.222250	0.990000
-64.597783	0.899000
-55.548550	0.500400
-57.770250	0.645900
-59.521350	0.757800
-55.269167	0.505300
-51.841050	0.408900
-54.154417	0.581500
-50.873817	0.429100
-54.438283	0.648200
-60.462400	1.010100
-59.823317	0.995500
-58.574117	0.977200
-57.878983	1.009100
-59.269083	1.095800
-55.045050	0.873900
-50.721500	0.625800
-57.139750	0.981000
-53.128600	0.780900
-45.792600	0.432600
-43.205783	0.303200
-50.912767	0.759100
-42.945350	0.267000
-46.890950	0.555600
-46.533867	0.552700
-46.869200	0.595200
-42.278633	0.324800
-59.076350	1.344000
-50.518050	0.847200
-42.752350	0.475800
-42.842950	0.534600
-48.828533	0.943100
-45.775050	0.744900
-43.544850	0.615600
-49.743367	0.994900
-46.089800	0.865800
-34.606167	0.245500
-40.414533	0.578900
-39.036867	0.514300
-35.110883	0.343700
-40.398917	0.709000
-32.907217	0.264700
-40.831633	0.731900
-39.794517	0.671800
-40.151183	0.708800
-37.677700	0.625500
-37.000000	0.731400
-34.506983	0.592100
-36.438533	0.723800
-38.457717	0.846100
-38.465883	0.857900
-39.631967	0.918100
-35.034500	0.802200
-29.994833	0.497600
-25.481417	0.214000
-35.736350	0.843000
-35.535783	0.944600
-31.605767	0.726100
-29.302667	0.631000
-30.222750	0.675300
-29.412183	0.632900
-30.654283	0.715100
-34.518300	0.990300
-33.728883	0.953600
-33.784567	0.976900
-31.811483	0.930500
-30.829400	0.876900
-26.748833	0.649400
-27.591750	0.727200
-28.438383	0.890600
-35.038750	1.306200
-24.028367	0.691300
-25.482367	0.766900
-23.598550	0.664200
-31.343800	1.128900
-22.683483	0.734600
-25.603367	0.918400
-21.164367	0.661000
-21.004133	0.646700
-26.018317	1.082500
-28.818383	1.268300
-24.403250	1.089900
-31.470967	1.517200
-18.988650	0.776700
-22.965517	1.005400
-17.954000	0.838200
-10.617217	0.408100
-3.269467	-0.069200
-2.996367	-0.080000
-16.080017	0.712300
-15.559717	0.700600
-16.379817	0.764800
-18.089750	0.909000
-22.089317	1.160800
-19.004600	0.990300
-16.783883	0.880100
-15.237267	0.907000
-17.771250	1.113900
-22.643600	1.479000
-21.875500	1.421700
-23.715100	1.542900
-8.545967	0.660700
-9.221683	0.750800
-12.555717	0.950800
-7.069067	0.685300
-9.777633	0.860600
-13.506300	1.101000
-15.505583	1.217300
-15.183233	1.283300
-4.849350	0.689100
-2.253700	0.556500
-9.563550	0.983400
-12.321083	1.183700
-7.189833	0.899300
-8.864250	1.051500
-9.495533	1.083200
-1.955383	0.649400
-0.481233	0.586400
3.270000	0.363300
-9.203717	1.136800
-13.952733	1.462700
-16.954317	1.716100
-8.423267	1.222300
-4.075017	0.975100
0.760983	0.693700
-9.599150	1.451400
0.101700	0.885900
-2.882383	1.078100
3.195417	0.726500
3.778583	0.814300
4.106617	0.804500
1.040533	1.037500
-1.338333	1.196000
-6.864400	1.549800
2.092767	1.010000
3.657267	0.947300
1.930833	1.077100
4.419933	0.963100
8.985367	0.711800
13.256667	0.461900
1.292050	1.187400
9.233983	0.864400
6.184617	1.076000
2.497800	1.303500
13.982967	0.624500
11.105383	0.839800
7.426533	1.171900
8.810800	1.102200
9.354483	1.119700
15.293383	0.786400
6.286083	1.343500
7.192050	1.273500
14.509133	0.962500
19.366950	0.694800
17.960067	0.786800
10.673850	1.223700
22.134017	0.556100
26.069167	0.311900
23.575283	0.570700
17.703883	0.906400
27.923017	0.320000
17.915383	0.917800
24.688150	0.608400
15.719267	1.188800
13.606133	1.394200
15.167950	1.318500
24.733183	0.754300
21.846050	0.927000
40.947317	-0.043000
26.011667	0.808700
19.259367	1.227800
23.956567	0.953000
27.135550	0.817200
23.473600	1.128600
24.619100	1.067400
16.685567	1.561400
19.161717	1.424900
25.013817	1.083800
32.033350	0.653400
20.394750	1.383000
23.481950	1.231200
27.725483	1.128400
38.259483	0.486100
27.837250	1.106700
35.104967	0.672800
32.533800	0.956700
39.078033	0.582400
35.194950	0.876000
32.890167	0.998600
25.212283	1.472800
31.711083	1.077100
36.476217	0.903800
38.295700	0.816600
39.220950	0.785700
34.602117	1.063100
39.755533	0.862000
40.639300	0.817800
38.006217	0.974600
35.750250	1.175700
43.138883	0.764800
36.241667	1.154900
38.620600	1.024800
37.655117	1.122800
34.405583	1.341700
42.526483	0.894700
46.927500	0.636600
44.677317	0.763400
45.001850	0.770400
50.650800	0.525600
46.073650	0.827700
36.726250	1.397700
44.785283	0.915400
42.501100	1.154400
44.732650	1.054200
44.236417	1.130600
43.889150	1.152900
34.065267	1.714100
42.434833	1.242100
51.488267	0.811100
46.402967	1.155500
45.394250	1.285800
46.586833	1.221100
55.049583	0.754300
45.911150	1.251600
56.124233	0.736300
51.681833	1.058500
52.735833	1.031500
54.822117	0.920000
49.068083	1.261300
53.306517	1.003700
50.832350	1.180200
54.442350	1.046100
59.057417	0.773300
42.561700	1.765500
58.922900	0.826200
49.867200	1.489800
62.334917	0.769700
51.330967	1.502600
52.301017	1.449200
49.174783	1.657900
49.434300	1.670400
55.089100	1.446600
56.222683	1.413700
65.949600	0.869700
67.360800	0.783600
61.736100	1.109400
61.670967	1.116200
73.260850	0.544500
63.742750	1.128000
68.886417	0.822500
76.325750	0.385800
61.229833	1.328200
62.346600	1.296300
70.327783	0.844900
70.165483	0.871600
70.333733	0.850900
62.201817	1.344500
67.425667	1.104200
70.798167	0.971900
77.104000	0.619500
70.410317	1.055900
68.601317	1.169900
69.423200	1.122000
68.540683	1.183600
73.108400	1.035600
69.381800	1.258500
68.433300	1.314900
75.466767	0.890600
71.574317	1.240700
69.055233	1.418800
72.980817	1.241000
73.498500	1.228200
72.196983	1.322800
79.884317	0.878300
73.636117	1.366700
76.258567	1.245200
79.254000	1.142400
76.811667	1.289900
81.493400	1.009500
82.281283	0.952900
72.587117	1.551500
69.574050	1.782300
79.916283	1.164100
77.486867	1.329800
71.678050	1.753800
76.925883	1.525000
81.067467	1.302200
78.188150	1.499100
90.368517	0.794600
84.118667	1.161500
84.387383	1.173100
86.703250	1.170600
81.368850	1.494600
85.841383	1.293100
83.565433	1.423900
88.326083	1.123300
86.624700	1.223700
78.051633	1.879000
85.740217	1.416500
88.416833	1.292800
90.110033	1.176700
90.565767	1.208600
85.584017	1.528700
85.892583	1.563700
88.131100	1.444500
84.489900	1.695600
91.805083	1.265800
90.688933	1.387900
97.351150	1.116900
95.089567	1.236200
88.031450	1.653900
96.504267	1.198100
95.783783	1.338400
95.974333	1.341700
91.500800	1.610100
97.908433	1.231900
101.501850	1.014900
92.477450	1.568700
107.823200	0.709800
98.546217	1.242500
97.465533	1.352200
104.708467	0.947300
99.608800	1.238100
95.995350	1.450800
100.629533	1.346500
101.231083	1.341100
98.926300	1.496400
89.953983	2.053900
101.679333	1.381600
103.863383	1.253500
102.317150	1.485900
110.436417	1.017800
103.384917	1.429100
107.214517	1.226300
107.741217	1.271300
106.853650	1.396800
104.753617	1.569500
107.793983	1.418800
106.824583	1.481800
110.802783	1.249000
112.127350	1.233300
117.357233	1.012000
110.677100	1.428300
105.967617	1.723700
111.023400	1.437900
109.514267	1.681100
111.071250	1.608900
118.873383	1.197700
114.409183	1.461100
106.585233	1.929100
117.219317	1.295300
120.174450	1.214400
115.011417	1.551500
121.088117	1.224200
120.167233	1.281700
122.846650	1.123200
117.122250	1.468200
122.728700	1.228200
119.238500	1.489200
127.683000	1.011300
122.931400	1.318500
114.640483	1.819000
117.742200	1.659000
122.861267	1.401200
122.673283	1.505800
115.083783	1.981600
128.381767	1.192100
124.659683	1.444900
126.904683	1.335400
124.427083	1.508800
127.690883	1.320700
127.530767	1.357400
123.073383	1.607500
122.248833	1.675900
133.209300	1.162800
128.940533	1.444000
132.985750	1.265400
128.458800	1.527300
134.060467	1.213400
132.425983	1.279600
138.719033	1.067500
132.406700	1.446600
143.249900	0.787500
131.389950	1.478700
133.191450	1.500600
126.855017	1.919300
146.464800	0.804600
137.488800	1.327500
136.892467	1.351400
133.547783	1.558900
131.316267	1.834700
133.682300	1.694700
139.509567	1.351400
136.248150	1.539600
137.508883	1.513900
132.205167	1.940300
140.637517	1.453100
140.652617	1.509500
144.852550	1.267500
136.601217	1.744100
140.457867	1.485800
141.047650	1.599000
133.703583	2.072800
139.562900	1.790400
155.000717	0.862700
146.613683	1.317700
146.374567	1.335200
142.305117	1.696100
150.753017	1.224200
143.228450	1.725600
144.993733	1.631200
147.596300	1.480200
147.458517	1.502600
137.942233	2.175700
150.099700	1.434300
146.972983	1.624900
146.603817	1.648400
146.649283	1.677400
148.364917	1.623200
154.075600	1.340400
151.622367	1.526000
154.235500	1.403100
160.393750	1.032300
152.360150	1.548300
159.590183	1.206700
161.922650	1.090800
158.340800	1.336500
160.478033	1.210900
156.481167	1.454600
152.192033	1.711000
173.903217	0.586400
158.286833	1.536700
146.904033	2.235100
157.505933	1.603300
154.871767	1.868000
153.094383	2.031400
172.954267	0.894800
164.772583	1.389400
174.989950	0.796200
167.240583	1.233700
159.579017	1.736300
167.393233	1.352200
165.476600	1.473600
165.496900	1.518600
166.127383	1.485100
160.596733	1.810300
169.081433	1.320700
169.487367	1.428800
168.351833	1.499800
165.462617	1.679300
172.179250	1.266900
165.693583	1.687900
169.458800	1.457100
170.313183	1.571200
181.169133	0.922900
173.976167	1.368200
173.067800	1.436100
173.357217	1.549400
173.745767	1.542800
182.953767	0.971600
172.376250	1.583700
184.220683	0.995500
177.625150	1.367400
169.896100	1.836600
182.398433	1.135600
166.575567	2.180900
172.297583	1.797700
177.172500	1.516500
175.710717	1.632800
176.069433	1.646800
182.285950	1.374600
171.289317	2.024300
175.703617	1.801400
175.177533	1.835500
180.633050	1.599600
179.061033	1.716400
176.450450	1.905300
178.901500	1.761300
188.523800	1.190400
181.328900	1.632600
184.369800	1.564500
183.240233	1.678900
188.686033	1.423000
190.776133	1.289800
183.806750	1.710000
184.330017	1.701500
185.950667	1.672100
187.889400	1.564200
183.975650	1.815900
186.277483	1.673200
189.899867	1.533800
185.929400	1.842600
194.607483	1.362700
186.904100	1.845900
191.973233	1.541800
188.041883	1.787500
189.445117	1.756100
192.911867	1.670600
192.945000	1.660200
184.440917	2.186900
198.344717	1.395800
203.210017	1.236200
196.676700	1.600500
193.141717	1.883000
193.100850	1.895100
205.319850	1.169100
195.800717	1.707200
194.138050	1.957500
195.366233	1.919500
200.580217	1.652900
197.822717	1.814600
201.413417	1.602800
201.130933	1.616500
212.884500	1.100400
206.736117	1.433000
202.995150	1.679100
210.218800	1.241700
205.482000	1.611600
208.831717	1.456400
211.484533	1.299700
208.603533	1.504600
211.350733	1.345000
208.942750	1.456500
209.613950	1.451100
215.974583	1.201300
208.291600	1.652700
214.822100	1.290000
208.213733	1.669300
200.152783	2.190400
212.365800	1.461900
206.006033	1.969900
218.010933	1.266700
209.478883	1.819000
206.207600	2.016900
204.770667	2.126000
208.106800	1.955400
213.075767	1.825700
206.878533	2.197900
212.165500	1.892400
211.853183	1.914100
210.525033	2.114500
217.140417	1.773500
197.151717	3.023600
209.462933	2.295700
221.878300	1.577700
221.673250	1.577400
224.131950	1.503900
222.909333	1.642000
218.976467	1.918700
220.333450	1.860000
221.638483	1.789300
222.745817	1.722800
216.006917	2.158400
221.318400	1.908900
223.224233	1.792000
228.658467	1.459700
227.243467	1.564400
220.658150	2.097600
229.335217	1.598300
236.175467	1.208300
228.523350	1.687200
225.789617	1.851800
231.616000	1.519200
231.721433	1.667500
236.943500	1.374600
224.427550	2.109600
230.659533	1.755100
239.899267	1.201400
236.901033	1.375000
238.453733	1.362700
230.148233	1.825600
239.593783	1.310200
239.868750	1.272900
228.722483	1.990600
227.040850	2.142900
229.445833	2.028400
227.536350	2.206800
227.906900	2.213100
232.774150	1.926900
232.397883	2.000800
240.540083	1.637500
228.181217	2.389100
232.647650	2.194500
235.572717	2.040200
230.743200	2.337600
240.974917	1.727000
249.458633	1.320700
245.594417	1.547000
234.427650	2.217600
242.866217	1.735400
248.958733	1.536400
251.982950	1.397700
254.010267	1.283000
248.027733	1.645900
244.894183	1.820800
239.404433	2.156800
247.235767	1.753100
249.840017	1.611800
244.348133	2.002600
253.869150	1.467600
253.082283	1.507900
243.687450	2.063400
244.602117	2.037500
241.692817	2.345000
247.852000	2.011800
247.213433	2.104600
248.115400	2.055000
252.537383	1.807300
242.727717	2.426000
243.336233	2.533600
255.547767	1.806500
251.956317	2.029700
255.926933	1.797700
260.664083	1.624900
260.519083	1.596100
266.423617	1.211600
264.590400	1.338900
258.286967	1.784900
253.685533	2.050900
266.522400	1.341000
257.601667	1.908800
246.217950	2.663400
263.727150	1.610700
267.402283	1.395700
261.548950	1.761300
262.013933	1.807000
259.896250	2.025000
268.911950	1.490100
261.399200	1.938000
262.001117	1.915700
264.594217	1.890500
262.741750	2.034000
267.997783	1.779700
268.926483	1.729000
273.959883	1.449700
272.184350	1.569600
269.157583	1.800400
260.611200	2.331000
269.780200	1.799100
271.963033	1.669900
274.185317	1.625600
270.782633	1.853500
268.828400	2.065500
269.950383	1.999300
270.589733	2.002600
269.034717	2.103800
270.266633	2.142400
277.974267	1.755800
276.202983	1.909000
277.063600	1.892100
277.984417	1.836200
276.887767	1.916900
279.370617	1.834700
282.785917	1.735700
289.772633	1.314700
287.042050	1.472400
278.802817	1.997300
281.360150	1.958100
274.028033	2.406400
279.681850	2.118000
275.860933	2.366200
276.859817	2.342600
275.313233	2.455600
282.427450	2.075400
289.239417	1.674800
286.516167	1.914200
289.013883	1.762000
279.537767	2.345300
272.350583	2.774200
290.491400	1.833900
289.721467	1.910000
287.594550	2.128500
290.877750	1.902300
285.493200	2.249400
282.278817	2.435600
293.150983	1.896100
300.779300	1.476900
296.739483	1.711300
292.941800	1.913400
302.208400	1.405500
292.391850	2.125800
294.695300	2.005200
289.730300	2.322900
292.886100	2.133000
294.959283	2.020900
294.646833	2.051500
302.434433	1.720000
296.926383	2.074600
299.681283	1.941400
306.791467	1.512800
292.782117	2.352500
296.264733	2.151700
296.840433	2.278300
293.734733	2.497000
296.989083	2.313100
295.082517	2.428700
305.375033	1.921900
294.790617	2.603000
299.487200	2.390700
305.263350	2.046300
305.100750	2.044500
304.607200	2.074200
307.002133	2.000200
313.572850	1.663200
309.078200	1.934400
307.911767	2.031800
304.935367	2.201900
313.015150	1.729800
307.473700	2.061000
305.691217	2.303300
304.246233	2.391400
315.457517	1.745000
312.835283	1.913800
315.998567	1.812500
315.720683	1.868800
302.245983	2.723800
302.163550	2.715900
301.043600	2.814300
313.890533	2.047000
314.081667	2.129300
311.417567	2.352800
308.449200	2.532300
311.936167	2.332700
321.133083	1.808500
311.259183	2.427400
316.161117	2.155700
313.619800	2.341500
314.354317	2.319200
310.664733	2.583700
311.513800	2.546100
309.639233	2.665300
314.791733	2.376700
310.577133	2.686300
316.853517	2.329100
310.938700	2.690100
313.051050	2.568000
323.291400	2.114700
316.359767	2.554100
319.208167	2.466500
323.938683	2.174800
320.878350	2.382000
324.437283	2.186500
326.941467	2.145200
321.804917	2.501600
319.663117	2.689700
323.330317	2.485700
326.652683	2.285800
323.115033	2.488600
323.035083	2.561200
330.847933	2.102200
322.011683	2.642500
331.449033	2.074000
334.649283	1.916800
329.156900	2.290500
329.583750	2.278500
320.781050	2.829900
334.470250	2.055000
339.912083	1.741000
330.492117	2.304200
330.418767	2.453600
335.181033	2.194900
341.310917	1.865300
339.310317	2.003300
335.133500	2.250600
335.143767	2.256200
341.575550	2.034000
340.999050	2.080200
340.531583	2.119300
341.535133	2.084500
345.854783	1.939600
342.151317	2.192000
339.133550	2.416200
348.859000	1.833300
343.567867	2.170400
338.108667	2.473400
342.314200	2.316600
343.665150	2.301900
343.960600	2.301900
339.004450	2.645700
343.171333	2.418400
345.073650	2.327100
339.352217	2.729000
345.815233	2.447800
348.077400	2.347200
336.396833	3.097900
350.526400	2.265600
351.204317	2.212400
355.426683	1.957600
357.318933	1.975300
355.855733	2.083300
358.328683	1.919800
359.243833	1.856500
346.370500	2.790600
356.640167	2.202500
359.128350	2.052000
352.784667	2.421500
348.620633	2.691400
357.046533	2.190100
357.581650	2.292600
366.161717	1.807100
371.267950	1.559400
363.172483	2.013100
346.075983	3.050800
358.627650	2.308800
358.381567	2.506100
365.728550	2.036700
365.276033	2.066800
366.444383	1.981600
357.283533	2.566600
371.021517	1.864400
371.179217	1.850000
366.520800	2.179200
363.700400	2.350800
368.863400	2.027400
367.368383	2.122900
363.299217	2.415800
363.405167	2.433500
370.605917	2.043500
371.913433	1.974100
365.662883	2.367400
371.614933	2.013100
368.295283	2.321800
373.921633	2.007400
374.499883	1.985800
374.839133	1.961200
370.819600	2.300100
365.951533	2.654500
369.421800	2.523600
369.319900	2.552100
371.602900	2.401200
367.756000	2.645700
374.292267	2.324300
377.436250	2.257800
385.493150	1.801500
383.792733	1.959400
388.429033	1.666900
386.403317	1.774700
382.671600	2.016900
383.941600	2.055000
375.970967	2.527100
381.270167	2.250800
375.646417	2.602400
376.135867	2.637500
387.504133	1.986400
376.296917	2.687900
378.036717	2.595800
378.857733	2.579500
387.644983	2.064100
392.089283	1.902400
380.809667	2.623700
378.700217	2.825000
386.314833	2.380900
386.452617	2.381600
382.168367	2.631200
382.137867	2.718200
386.789300	2.543100
386.844933	2.541100
389.140500	2.435100
390.769300	2.390700
389.068133	2.540200
392.821883	2.353600
402.111683	1.816000
387.864700	2.675400
391.585683	2.455300
392.879883	2.410900
394.965767	2.332700
397.335867	2.202800
398.701100	2.155200
402.859083	1.904200
395.695650	2.325300
388.756167	2.737700
393.071883	2.651500
395.987567	2.474600
399.488733	2.315800
397.528850	2.446200
393.020033	2.838700
398.374733	2.578300
403.877383	2.325100
404.979633	2.274700
406.906433	2.144200
401.021767	2.473400
398.095500	2.756100
395.489400	2.989200
394.704183	3.098800
395.760033	3.025000
393.512267	3.183500
404.623750	2.542200
409.540433	2.298700
404.641267	2.672000
409.036700	2.422200
397.536933	3.104800
398.913383	3.046300
411.888817	2.343200
412.503383	2.330800
413.626183	2.317300
415.803550	2.196600
404.872033	2.840500
405.371267	2.827400
404.530067	3.005000
409.503133	2.743600
421.091633	2.133700
413.061583	2.599900
411.497833	2.693200
421.631067	2.094200
418.416233	2.370400
419.391317	2.330900
409.552683	2.946700
416.278783	2.539300
416.341917	2.546600
419.429517	2.364800
421.638000	2.285100
420.639083	2.437300
422.510633	2.321800
413.070633	2.902600
424.162400	2.289600
416.767850	2.828700
417.103467	2.818400
423.309317	2.495600
427.080433	2.275300
431.332117	2.046200
428.822100	2.193300
424.273500	2.500500
417.159650	2.964900
426.011867	2.527100
426.498733	2.493100
420.434733	2.849800
425.505883	2.564800
434.461000	2.199300
433.225650	2.280000
424.059167	2.852300
418.744667	3.174800
432.725300	2.501700
434.631933	2.429200
438.278633	2.215000
437.430183	2.299600
445.809667	1.775300
441.132450	2.047800
438.728717	2.297000
430.279217	2.842400
435.658583	2.551300
433.812367	2.700200
445.845717	1.992800
440.980433	2.284600
435.571183	2.656000
435.657000	2.754900
441.196217	2.421500
435.803500	2.749500
442.230617	2.434400
439.543650	2.691600
440.313067	2.670200
439.921617	2.756000
440.226250	2.757900
448.163233	2.275300
446.156817	2.377400
445.318150	2.574600
442.666033	2.739100
442.781817	2.743400
445.066483	2.602000
441.157633	2.840500
440.604717	2.886500
451.467283	2.304700
443.512967	2.759600
438.063483	3.098800
450.849200	2.335200
447.811583	2.623000
445.067567	2.827400
446.303367	2.841800
455.810933	2.281600
447.708983	2.784700
445.827417	2.894900
451.248800	2.614200
458.300333	2.309800
455.589283	2.468200
452.482733	2.657500
456.397300	2.472900
455.344317	2.637500
457.435100	2.536500
454.347150	2.797500
457.926317	2.580200
458.993950	2.539500
449.553667	3.093500
459.943533	2.539300
460.906150	2.494800
463.503400	2.396700
460.266133	2.591500
469.220150	2.059500
461.494783	2.540800
465.069250	2.458200
475.436017	1.866200
463.710350	2.595300
463.214633	2.629900
458.694383	2.921500
469.086700	2.325300
466.486267	2.514500
461.380183	2.873200
463.906567	2.743400
462.154017	2.841800
459.646133	3.071200
469.158150	2.583000
478.178817	2.060900
464.823933	2.860000
465.283467	2.860100
466.100750	2.846700
471.078883	2.595700
467.422300	2.855400
466.134383	2.932000
471.153067	2.648900
476.319217	2.357600
472.382767	2.590700
474.898250	2.429700
470.256317	2.850800
475.513517	2.549300
467.042783	3.084400
470.527967	2.886500
474.614717	2.752100
479.605183	2.541400
462.509667	3.712400
476.340450	2.820300
480.066617	2.607500
487.938817	2.169200
483.466283	2.488000
481.057117	2.678000
482.602283	2.619400
477.087533	2.995000
481.123500	2.755800
476.886100	3.020700
484.794550	2.560800
481.088450	2.840400
479.288650	2.976600
488.466850	2.441400
486.169867	2.581100
486.865500	2.616900
490.051483	2.436400
476.050850	3.309600
478.523750	3.176100
483.146833	2.923900
489.074483	2.590000
487.952317	2.808800
491.910617	2.615600
493.122667	2.540600
493.857033	2.494900
487.518733	2.977300
497.751750	2.411100
488.542667	2.974700
499.362267	2.375600
492.464483	2.773600
492.954300	2.757900
498.338867	2.537600
497.239667	2.661500
495.167550	2.847000
492.995100	2.977500
496.177367	2.802800
493.484700	2.970900
498.135217	2.740400
497.535567	2.866700
498.970267	2.820800
502.100483	2.660800
502.511517	2.650700
502.183617	2.690300
495.438550	3.104700
500.883483	2.951200
503.916000	2.751600
499.183333	3.046300
498.405667	3.116900
502.988183	2.992600
498.126433	3.304000
510.809517	2.607500
512.608700	2.517300
508.671900	2.736900
511.617667	2.551100
501.266183	3.286900
506.879750	2.997900
520.670900	2.187900
509.651533	2.851000
504.224100	3.173400
509.783533	2.859700
509.605550	3.041100
513.799183	2.806000
509.121550	3.120600
512.781550	2.910000
521.394383	2.415700
517.335117	2.667500
508.126800	3.226200
517.374450	2.727300
523.673183	2.360500
507.575767	3.314600
517.615450	2.711700
519.665883	2.743000
522.895300	2.571900
524.833683	2.489800
527.181400	2.348700
509.443867	3.405800
510.372900	3.360000
519.810533	2.865400
522.880867	2.690900
526.295700	2.544600
520.359600	2.899500
515.976950	3.293700
522.718933	2.925100
519.906233	3.187900
534.258117	2.324300
518.086850	3.292800
523.678400	2.938800
530.583483	2.597500
531.881550	2.619000
521.933067	3.241100
527.952850	2.904000
531.470217	2.712200
524.603467	3.123200
525.404650	3.104700
529.507300	3.009600
524.021650	3.342300
520.888883	3.544600
530.603467	2.953700
525.074050	3.438300
529.427733	3.232900
528.896183	3.328300
531.531400	3.178800
528.064667	3.409700
530.353850	3.291600
533.354417	3.170900
531.129683	3.327100
532.368600	3.285000
541.273467	2.758400
544.055417	2.616200
542.490383	2.683600
540.911983	2.909200
541.042950	2.945400
542.980767	2.862800
543.852567	2.843900
546.036700	2.732400
535.933050	3.345300
542.690550	2.928300
545.375567	2.765600
539.981733	3.110800
543.487800	2.908500
549.395067	2.597000
550.110517	2.770700
544.238550	3.132300
540.854333	3.365200
547.243833	2.967700
541.074983	3.362800
545.030700	3.119400
551.292700	2.793000
552.223717	2.763800
555.671333	2.598400
552.899467	2.767700
551.474517	2.853800
553.732233	2.744500
556.896500	2.694900
548.798617	3.205400
552.062183	3.027100
545.416583	3.413800
551.553700	3.153900
560.897400	2.673300
565.696050	2.422200
561.901750	2.669700
562.635400	2.630700
551.429267	3.299600
554.228067	3.177500
560.642567	2.932100
565.869683	2.628700
558.313917	3.122600
557.794933	3.154600
560.026883	3.035500
560.959767	2.986400
564.540300	2.959500
562.022467	3.116600
565.576600	2.928000
562.486133	3.118600
569.604217	2.798600
560.192583	3.405400
569.753467	2.855300
566.405283	3.066700
565.063700	3.151200
564.227483	3.198400
559.285250	3.596100
568.721800	3.091800
565.315400	3.334800
561.280167	3.582500
570.089850	3.056100
571.119667	3.022700
577.489017	2.745800
583.538317	2.455400
577.502417	2.804600
571.082467	3.186500
578.355850	2.788500
573.024517	3.170900
574.481233	3.091300
576.605500	2.988600
586.047483	2.421400
576.697333	2.969500
574.195167	3.146000
581.407200	2.870400
582.329733	2.818900
577.483967	3.106700
573.794283	3.339700
576.487800	3.315900
588.936183	2.622100
574.956650	3.507900
582.396850	3.064800
576.916900	3.415200
590.096500	2.630700
583.314233	3.131500
579.250433	3.424600
577.694717	3.573500
584.682667	3.179900
602.817050	2.107500
598.530767	2.378300
587.275733	3.122800
588.475867	3.100700
586.504233	3.261400
591.986533	2.953000
589.679217	3.069800
590.230733	3.045700
583.861100	3.438000
589.621350	3.158400
584.519033	3.494800
591.520183	3.090400
588.890067	3.247400
593.058083	3.120700
595.406883	3.010300
588.956117	3.468200
595.898667	3.061400
592.013317	3.277100
598.412933	2.914600
601.977033	2.805700
598.361900	3.039600
596.164633	3.198400
602.971700	2.830200
598.404433	3.106000
598.902517	3.082400
603.210050	2.910000
597.753117	3.262700
594.562400	3.470400
596.582200	3.364200
606.323500	2.854500
594.903650	3.650700
606.043433	3.015700
604.659133	3.158200
604.325133	3.183400
605.231300	3.126600
610.596200	2.837400
603.640183	3.381400
614.827750	2.742900
610.950650	3.030600
609.734833	3.090700
610.521900	3.062100
607.293717	3.273500
615.131467	2.953700
615.842300	2.956500
620.263550	2.705400
617.665950	2.869500
614.425367	3.114500
612.161617	3.246800
617.993017	2.993900
607.783383	3.635500
612.510600	3.369600
615.255100	3.204300
622.159150	2.848500
617.081383	3.194500
610.059500	3.628500
617.340100	3.210900
614.569083	3.394300
619.461400	3.255000
620.012417	3.234800
614.281933	3.651400
620.155367	3.305600
616.590200	3.536700
617.683350	3.486900
617.314117	3.662300
619.859067	3.541100
627.842167	3.121100
616.212067	3.835100
621.489100	3.538800
622.226300	3.489900
627.679950	3.296100
635.257883	2.893600
630.626333	3.201100
630.567533	3.200200
626.948800	3.400800
632.501200	3.083700
634.166650	3.132000
636.217900	3.005400
643.198967	2.626700
634.580867	3.131300
629.695817	3.500900
637.708717	3.100100
639.382250	2.998500
633.657983	3.353200
636.910483	3.172600
627.220333	3.737500
629.425150	3.648000
642.767650	2.964600
639.285767	3.185600
645.152067	2.872100
641.030700	3.102600
636.336400	3.378900
636.637867	3.359300
642.396600	3.161700
644.794317	3.027800
643.540683	3.084400
638.221667	3.412400
644.734217	3.167000
639.315483	3.530800
640.179183	3.523600
648.323250	3.047700
652.730967	2.799800
641.667817	3.439100
644.724050	3.346800
648.009783	3.217600
645.615317	3.412700
645.440067	3.439100
646.800100	3.382800
652.484450	3.057900
652.932400	3.064500
651.195733	3.282400
655.787400	3.024300
650.543950	3.371100
649.821067	3.418700
653.394533	3.205000
655.354683	3.103300
656.780367	3.113600
656.435433	3.128200
659.630933	2.925700
646.652783	3.726700
652.718883	3.492700
656.945433	3.278200
658.535733	3.219400
656.406733	3.374500
658.216800	3.267300
661.653333	3.069100
666.480983	2.906800
655.677067	3.560300
660.444750	3.334800
661.408050	3.274200
661.452617	3.325400
659.242400	3.547500
662.951750	3.374100
662.353417	3.452000
663.384000	3.385800
666.931167	3.179600
670.824233	2.973400
668.968850	3.194700
667.985117	3.266000
666.394933	3.350500
662.716550	3.606600
660.276417	3.877400
676.771883	2.933800
677.322333	2.914600
671.884183	3.261400
671.516150	3.318000
670.283017	3.400400
676.340900	3.071100
673.833383	3.208900
678.491450	3.084300
676.845217	3.203000
672.995483	3.451900
677.353300	3.228600
676.171100	3.309900
678.064983	3.187900
678.173633	3.282400
679.038367	3.278000
677.963800	3.366300
676.027400	3.462000
669.710650	3.873600
680.139783	3.318100
677.791317	3.471800
676.055500	3.594600
680.193650	3.369300
674.883367	3.700100
674.764233	3.735400
691.548317	2.856500
687.082267	3.141500
676.471367	3.773300
686.625633	3.199900
683.373550	3.520500
683.027150	3.561900
679.156333	3.859300
680.663150	3.762600
686.284617	3.439700
690.858250	3.150600
692.300767	3.183800
696.377450	2.956500
695.032067	3.065600
695.853033	3.020800
691.897933	3.250900
693.434067	3.178100
691.260450	3.376800
688.788217	3.637700
682.932683	4.041400
688.512850	3.768600
687.128000	3.861900
693.660533	3.484900
689.570600	3.773100
692.375933	3.730600
691.377817	3.805400
695.079900	3.568200
693.365833	3.687100
695.080267	3.735500
693.752567	3.861200
696.501467	3.708500
704.959783	3.221500
702.092483	3.505300
698.533067	3.703100
696.962767	3.907400
701.438583	3.669400
697.848000	3.922200
700.628183	3.780400
707.487050	3.398400
705.681600	3.497700
704.856767	3.633800
700.291033	3.898600
700.512767	3.904100
698.217733	4.056700
708.638167	3.521000
705.068033	3.820000
703.612533	3.930100
708.921383	3.667000
713.460967	3.395000
701.211717	4.121600
703.255700	4.010700
714.995633	3.468700
713.404650	3.566400
713.849067	3.581600
715.140800	3.511200
719.694233	3.232000
710.512000	3.776100
709.864183	3.863500
719.095283	3.290500
711.457033	3.827800
709.963367	3.946700
719.127650	3.441300
721.177083	3.344800
719.633283	3.523600
727.154533	3.057400
728.885950	2.920500
728.399117	2.937500
713.487750	3.964200
722.471783	3.462700
718.927633	3.681700
721.961250	3.504600
719.559533	3.734200
722.211917	3.682400
720.029200	3.822900
719.952633	3.842800
725.578850	3.568200
721.285533	3.949000
723.138333	3.841000
731.323000	3.402300
728.164967	3.615800
723.894583	3.919600
726.868683	3.745300
732.279417	3.429200
729.871850	3.583800
731.054100	3.660000
734.315517	3.451400
738.354683	3.198400
736.283567	3.330800
733.136467	3.634100
738.234250	3.370200
732.891067	3.733400
728.981833	3.965800
735.720700	3.581700
739.801033	3.342400
741.294200	3.313800
742.168683	3.372400
739.482450	3.536700
745.006100	3.189300
745.494500	3.197700
743.783517	3.416300
737.869267	3.796400
744.696817	3.450200
740.393350	3.727800
747.209117	3.380000
749.415050	3.243300
737.727667	3.937700
733.306167	4.212200
740.982350	3.841500
748.995350	3.374100
745.356483	3.597700
744.925767	3.637400
746.172733	3.738700
744.471867	3.841400
741.301817	4.046600
743.063933	3.941800
766.369833	2.713300
751.689017	3.593600
753.006950	3.548400
759.766067	3.149300
750.727667	3.736100
753.129083	3.592900
746.607600	3.995700
754.460033	3.522400
756.334817	3.455900
750.156717	3.842900
755.876150	3.516900
757.466317	3.462200
746.296750	4.171800
753.389817	3.777200
754.312817	3.737600
756.073217	3.796400
757.991400	3.698700
748.040467	4.323500
749.448167	4.233500
763.589817	3.490100
755.632350	3.985200
760.392017	3.735500
761.690183	3.668500
763.839667	3.545300
758.431817	3.887300
766.789233	3.538300
768.625500	3.447600
762.426267	3.814700
762.064983	3.865900
758.723583	4.201300
765.576383	3.820600
763.483400	4.016700
764.244133	3.979900
766.758267	3.796400
765.028950	3.939900
766.933550	3.873600
765.753900	4.072800
769.342950	3.883500
776.289200	3.507900
769.905117	3.883100
776.170850	3.517200
775.376033	3.572800
779.615367	3.368900
780.640300	3.316800
774.187017	3.725600
784.448483	3.126400
777.546083	3.542800
776.502400	3.610500
773.137283	3.851800
768.695483	4.145500
774.502600	3.790500
784.564550	3.194100
779.400217	3.492200
773.092150	3.874500
773.499267	3.834800
779.879033	3.450700
779.258067	3.605600
778.439950	3.692100
776.552350	3.924000
790.408583	3.228700
783.467800	3.662100
780.431317	3.828500
774.245633	4.254100
783.753783	3.850900
780.393500	4.065600
787.284683	3.648100
786.503450	3.765600
781.446083	4.173400
781.643117	4.189700
779.151400	4.371600
780.525967	4.313600
788.962383	3.806200
781.976617	4.259900
787.630900	4.120500
788.456333	4.068400
798.391900	3.496500
796.231150	3.636600
796.951850	3.592200
796.026883	3.652300
793.278867	3.941900
797.599667	3.744500
799.803200	3.638400
797.868167	3.727100
795.417783	3.916300
800.131767	3.633800
803.301317	3.448100
799.645467	3.666800
786.552717	4.442600
789.016233	4.303000
799.832550	3.691500
789.442367	4.309100
790.640817	4.251500
798.168467	3.806900
798.618983	4.036900
813.075733	3.515200
814.340017	3.469700
804.169417	4.109600
805.276933	4.042900
812.297667	3.630500
812.316067	3.629300
817.892917	3.434000
813.944283	3.661300
812.355450	3.751800
812.717617	3.727400
814.526350	3.773100
818.962483	3.514000
819.300350	3.468600
817.218467	3.603500
811.001450	3.974700
810.345700	4.027800
814.294833	3.894700
817.151617	3.746900
813.638433	4.000900
812.379367	4.065200
806.673050	4.425000
816.589667	3.848300
824.972067	3.418700
813.744100	4.105800
810.413883	4.318900
819.184117	3.806900
818.667717	3.938000
820.559450	3.922200
817.838350	4.095300
826.140967	3.606200
819.220617	4.022600
811.914233	4.468300
822.433000	3.900300
830.459400	3.588000
826.780133	3.828700
824.479850	3.976500
827.980833	3.769300
834.298833	3.523600
834.077983	3.551800
838.312750	3.328500
832.152183	3.699700
830.994217	3.774800
824.474100	4.158600
827.516067	4.070900
831.666533	3.812800
829.536350	3.966000
828.722450	4.041600
834.217900	3.857700
830.986800	4.094400
830.796067	4.139900
836.083383	3.827800
840.915100	3.549900
831.659917	4.096400
835.695050	4.006200
838.408517	3.927500
832.095467	4.318400
840.269167	3.846200
842.581817	3.742400
842.872350	3.734100
840.553533	3.944800
835.690217	4.380800
836.217233	4.379800
841.257167	4.097300
837.094717	4.333100
837.317183	4.484800
843.641233	4.124800
838.427317	4.447700
846.339283	4.000000
841.944717	4.262600
839.066300	4.428600
830.751133	5.157700
833.037100	5.070900
841.830517	4.578200
846.161750	4.350900
857.041233	3.839800
859.696200	3.714900
859.396217	3.741800
854.369433	4.036300
854.277000	4.023300
858.552667	3.791600
850.624167	4.436300
852.784183	4.315300
858.918317	3.965000
858.422800	3.998100
857.515550	4.066200
857.516367	4.189400
850.686650	4.618500
858.858050	4.150800
858.449667	4.172300
858.332833	4.220200
862.759200	3.966000
866.097017	3.937700
859.615583	4.322500
855.256450	4.591800
855.189433	4.605700
856.625733	4.619800
860.866967	4.370900
860.484650	4.397400
867.898900	3.979500
868.166233	4.130200
870.703483	4.010800
876.095717	3.718700
866.488483	4.280200
870.768717	4.007900
871.316950	3.963600
872.038217	4.084400
875.070217	3.948500
869.045917	4.307600
872.388117	4.118900
872.997967	4.069100
874.289550	4.008000
870.019950	4.247400
871.430267	4.167200
868.645533	4.408300
876.839350	4.006800
869.943767	4.428800
878.944467	3.904400
878.258317	3.969500
877.823967	3.996500
875.059533	4.183600
869.164733	4.536400
868.966950	4.606200
881.504350	4.116600
883.306983	4.054600
890.946950	3.660000
886.421283	3.921400
872.982083	4.739200
880.723100	4.302900
885.093833	4.163500
888.994100	3.952500
886.140383	4.130500
886.767150	4.095000
890.325967	3.887600
883.787683	4.250200
885.909233	4.336600
889.620617	4.138100
887.248167	4.290200
890.365333	4.139500
894.732050	3.941700
883.793550	4.617900
889.878617	4.271600
894.411267	3.993200
897.374583	3.814900
890.906017	4.201400
899.272767	3.735800
890.011833	4.389100
890.147000	4.384500
891.087850	4.355100
892.464333	4.300600
894.277583	4.216000
895.475950	4.164300
888.115367	4.612100
893.604750	4.313400
901.506950	4.162500
903.323367	4.051400
898.106067	4.372400
898.102583	4.387300
899.696233	4.343200
904.305283	4.109800
905.439500	4.069800
908.068967	3.917000
904.410183	4.130500
904.178250	4.154400
903.365367	4.222400
901.742750	4.329300
905.608267	4.186700
904.272650	4.309800
907.488683	4.138600
903.495100	4.400700
906.805817	4.229600
905.798233	4.321900
914.756817	3.836600
913.091850	4.097100
914.752783	3.988900
914.207133	4.045000
924.784217	3.420800
909.181283	4.345900
898.027867	5.009000
909.838000	4.330800
905.954633	4.600900
910.855383	4.452400
906.574567	4.730000
916.360850	4.193100
909.691100	4.591200
912.145267	4.620800
924.252400	3.924000
919.054500	4.238400
915.562367	4.423100
917.263350	4.343100
920.961817	4.134800
925.611367	3.938000
928.434867	3.802400
918.869533	4.396900
919.834950	4.367100
923.356133	4.195000
921.660650	4.287300
919.310850	4.460700
924.239233	4.205500
925.107683	4.364200
921.913700	4.667700
930.872650	4.152000
926.480300	4.431000
931.348000	4.160700
929.700667	4.274300
924.860283	4.571800
922.826233	4.727200
924.293700	4.733700
925.013183	4.953100
937.047050	4.286400
934.889567	4.436300
943.107450	3.955500
933.755500	4.625100
938.354567	4.390100
940.577517	4.271600
933.998317	4.667000
941.492800	4.214700
937.743600	4.448100
936.830950	4.670700
942.537617	4.366100
936.666667	4.728200
932.057700	5.012400
948.881133	4.030600
941.082967	4.498100
944.035650	4.325100
937.585500	4.717200
943.340433	4.651300
947.343950	4.487400
940.692167	4.889600
954.405717	4.067300
940.913533	4.976500
948.675433	4.509700
949.848633	4.432300
945.042350	4.741800
945.378533	4.745200
950.453067	4.589900
959.452417	4.090100
957.170283	4.270000
945.360150	4.989600
953.796700	4.488000
954.214183	4.479100
949.743417	4.903400
953.219117	4.724300
962.457383	4.213600
961.318733	4.269100
952.485950	4.815000
964.003600	4.129200
955.396217	4.758800
959.746217	4.521800
961.331217	4.404800
964.424450	4.250700
956.910517	4.763900
957.762233	4.713700
959.843283	4.640800
961.918550	4.540500
969.309850	4.118100
966.690533	4.265500
959.508283	4.785400
964.720433	4.571500
967.394183	4.446700
965.921567	4.549700
955.264317	5.225300
965.740883	4.620100
960.565517	4.972100
961.008050	5.088000
968.302850	4.650600
973.492300	4.374900
972.478300	4.453500
974.828967	4.352300
970.463933	4.616200
964.002667	5.039900
968.880950	4.773900
970.980450	4.639500
970.438367	4.710500
975.889200	4.551600
970.130817	4.913900
977.706650	4.472400
976.907117	4.516700
974.096500	4.842900
979.787500	4.544400
970.102550	5.185200
976.550183	4.804600
1003.962067	3.156500
988.528817	4.054700
981.827150	4.562100
978.039317	4.841300
978.307650	4.918800
984.193750	4.573200
989.422800	4.320900
975.769533	5.118100
984.808600	4.614600
981.825800	4.908300
988.227467	4.552400
987.521150	4.652100
987.287783	4.694800
990.312183	4.509100
989.468467	4.554500
992.380183	4.440100
991.379867	4.518800
994.039617	4.375100
987.047183	4.814800
990.462200	4.749000
995.457833	4.470100
1004.520900	3.974700
994.467700	4.570200
990.449817	4.825700
985.945367	5.089100
992.094317	4.854500
989.505050	5.039100
996.881867	4.671200
996.081517	4.748300
987.610817	5.283200
987.376283	5.312800
986.840983	5.485300
997.342833	4.895500
1001.139567	4.677500
996.321133	4.966300
998.475550	4.888200
1004.765350	4.608000
994.770350	5.244000
994.879033	5.255200
998.787033	5.030200
1003.035100	4.804200
1003.565033	4.779400
1000.703083	5.074300
1004.191867	4.877600
1009.055450	4.668000
1009.058500	4.674000
1016.958317	4.209200
1000.633300	5.181900
1011.454417	4.673600
1015.871867	4.443500
1010.274350	4.747800
1007.219900	4.929300
1012.345800	4.757100
1010.886867	4.882700
1022.302433	4.232800
1014.368983	4.729300
1010.928733	4.936300
1020.138517	4.408100
1010.490817	5.112500
1010.154250	5.169900
1018.916650	4.735200
1020.682567	4.611500
1021.975117	4.537400
1013.732517	5.044100
1011.770267	5.252900
1014.629883	5.177800
1026.778833	4.467700
1026.311383	4.507600
1027.819333	4.435300
1040.927950	3.761400
1027.721483	4.528000
1026.298317	4.649900
1028.414067	4.526900
1020.509567	4.997900
1024.832167	4.756700
1020.763200	5.124000
1016.441567	5.420900
1022.394483	5.078800
1027.254283	4.786600
1032.013083	4.513900
1032.439300	4.504800
1022.872567	5.120900
1028.353150	4.809300
1022.838283	5.176900
1021.512600	5.270700
1023.585783	5.190100
1028.703117	4.893200
1029.139800	4.929300
1030.132467	4.860800
1030.547800	4.887300
1029.551833	4.933900
1036.406967	4.668500
1038.360050	4.692000
1035.835967	4.888100
1038.450983	4.779100
1034.015133	5.066500
1038.651300	4.809000
1035.458017	5.039000
1036.852533	5.053900
1033.786267	5.256200
1036.715417	5.175200
1039.438950	5.021700
1040.507517	4.970000
1042.080967	4.867700
1048.465200	4.664700
1047.139650	4.758000
1031.638633	5.707000
1039.836167	5.230700
1045.407050	5.042700
1049.787733	4.832800
1050.863417	4.810400
1049.676217	4.882400
1043.379850	5.275500
1046.452667	5.053400
1053.859117	4.677500
1046.665567	5.176700
1048.374233	5.112100
1049.708467	5.044700
1058.539983	4.505200
1053.200533	4.835500
1053.618183	4.855900
1059.227450	4.643100
1061.467833	4.521100
1055.781517	4.851500
1057.122350	4.798200
1051.627500	5.283600
1053.971183	5.167300
1057.432633	5.011900
1053.385183	5.271700
1050.495150	5.446800
1057.437500	5.025300
1045.489200	5.811300
1053.465900	5.374500
1057.808283	5.170600
1056.985517	5.229800
1056.032917	5.293400
1062.124850	4.929900
1064.519100	4.929300
1063.356383	4.996300
1055.826283	5.464300
1057.465767	5.379800
1062.435000	5.209500
1070.384033	4.793500
1069.666417	4.868000
1069.386400	4.907100
1067.847217	5.018000
1068.423717	4.973000
1062.224300	5.367600
1073.348567	4.766300
1074.709450	4.697700
1067.918050	5.116500
1064.691450	5.315700
1066.869817	5.348300
1073.179617	4.993700
1067.735217	5.380400
1067.664983	5.401300
1070.805300	5.246100
1067.643167	5.474000
1082.922133	4.661800
1078.579700	4.952700
1070.709933	5.502700
1074.759417	5.283800
1075.243500	5.276100
1072.656700	5.416800
1086.137933	4.784500
1083.208200	4.974300
1073.980450	5.537700
1080.630167	5.136200
1084.728233	4.967800
1081.792217	5.174900
1073.947867	5.663600
1071.371500	5.873400
1080.823567	5.317400
1085.463350	5.081400
1089.930833	4.851400
1087.779017	5.044700
1085.701017	5.200700
1085.599000	5.241000
1086.109300	5.204700
1091.476250	4.917000
1092.546850	4.867200
1093.256017	4.881500
1092.803700	4.931400
1091.328883	5.077300
1098.756650	4.652400
1097.702183	4.728100
1092.724783	5.019700
1096.075167	5.004200
1092.835417	5.211800
1101.043467	4.724000
1094.736333	5.104300
1098.833417	5.003600
1098.300133	5.083900
1097.212500	5.199900
1093.057883	5.487100
1097.613600	5.265000
1107.945917	4.649000
1097.570017	5.304800
1100.345500	5.178000
1110.306367	4.688000
1102.278417	5.137700
1099.816033	5.310700
1098.322200	5.407200
1101.445633	5.264200
1120.632733	4.266700
1112.260200	4.766700
1106.090600	5.137500
1105.303567	5.175800
1100.015817	5.638700
1106.928300	5.279700
1106.971317	5.353400
1107.580617	5.326700
1109.497850	5.232300
1111.278617	5.160800
1107.503467	5.469500
1108.581083	5.418100
1105.846583	5.598400
1116.963883	4.926100
1112.552667	5.239400
1111.221117	5.348300
1104.168500	5.852400
1114.622500	5.245200
1122.697300	4.817400
1125.280233	4.637500
1110.860750	5.532900
1116.224467	5.358800
1115.516550	5.435100
1116.940950	5.417100
1111.675800	5.730000
1113.509883	5.637400
1115.229050	5.575500
1122.995050	5.252400
1123.197217	5.290400
1128.733650	4.998900
1123.780733	5.310700
1126.182333	5.161000
1126.388350	5.147700
1127.759300	5.223600
1117.232233	5.887600
1130.420083	5.140300
1130.662900	5.127000
1128.150550	5.272500
1136.878750	4.755900
1127.830117	5.317400
1120.243450	5.779500
1120.406967	5.974100
1123.672550	5.820900
1128.910050	5.586000
1131.166700	5.493300
1135.054717	5.296400
1139.508067	5.055200
1143.518167	4.816100
1139.585483	5.042200
1136.716800	5.254500
1138.307267	5.274800
1140.847150	5.123400
1135.660083	5.438500
1146.496950	4.833300
1144.011183	5.074300
1138.994967	5.380400
1135.925917	5.613500
1142.735433	5.213800
1144.337600	5.121300
1140.221517	5.377100
1142.058033	5.388400
1150.012267	4.971200
1142.704000	5.478300
1145.904300	5.277000
1143.383633	5.442100
1144.215317	5.381000
1151.585133	5.088700
1148.195617	5.324000
1150.282550	5.254500
1151.543217	5.143400
1154.548183	5.014300
1148.612300	5.458800
1151.861533	5.292100
1154.583500	5.179800
1148.961233	5.509000
1155.317950	5.130600
1154.046150	5.242500
1155.955600	5.243400
1156.801683	5.206900
1155.281750	5.358000
1151.572567	5.600600
1156.502750	5.323800
1158.996217	5.179400
1151.449567	5.714300
1156.200933	5.447800
1149.783900	5.810400
1154.036150	5.594100
1153.619900	5.742000
1153.852517	5.775200
1158.890800	5.558700
1162.011933	5.371000
1158.361233	5.606500
1164.186433	5.248600
1164.240833	5.432800
1164.691667	5.426000
1184.196150	4.257900
1174.634333	4.823800
1164.155483	5.605900
1169.165333	5.318800
1162.068983	5.791000
1158.135317	6.066800
1168.929783	5.465200
1170.997000	5.372700
1175.559750	5.114400
1173.607733	5.229100
1172.132283	5.361100
1170.329650	5.598000
1168.542900	5.727300
1170.350367	5.661800
1164.108517	6.060500
1171.977300	5.742000
1176.794317	5.495000
1184.688583	5.121100
1178.674983	5.465500
1180.033383	5.382100
1183.756767	5.158100
1180.940517	5.418800
1183.324433	5.322700
1188.282167	4.992200
1177.993317	5.643200
1181.963450	5.436300
1187.101767	5.125700
1181.359983	5.566900
1188.933850	5.193600
1177.480567	5.863700
1175.867500	5.970600
1178.931767	5.827400
1186.837033	5.462500
1196.012233	4.945000
1187.688483	5.464300
1189.410567	5.360300
1191.489100	5.244900
1193.569150	5.176200
1193.172283	5.312500
1187.751317	5.681300
1197.627433	5.119300
1195.694083	5.232100
1188.349283	5.687200
1193.435033	5.400700
1196.359100	5.388600
1189.676917	5.822300
1197.031900	5.406600
1193.982817	5.600600
1191.665767	5.809700
1193.288183	5.733100
1199.001550	5.537700
1200.504550	5.473500
1209.601033	4.976500
1206.781683	5.128600
1203.468000	5.355900
1201.952067	5.490500
1199.029817	5.669300
1202.521783	5.503300
1197.997817	5.794100
1201.917050	5.579700
1204.375650	5.456400
1200.271850	5.701200
1207.268433	5.297800
1215.224750	5.031300
1207.891600	5.506200
1211.251467	5.303600
1204.968333	5.678800
1217.370500	5.121600
1205.798017	5.809700
1208.828133	5.647300
1207.967733	5.702800
1221.227683	5.027200
1220.722533	5.107000
1209.037650	5.843700
1204.770233	6.104200
1211.521867	5.723000
1209.264517	5.890400
1215.878800	5.569200
1224.469717	5.134400
1215.651150	5.721300
1222.294067	5.338400
1216.004400	5.701800
1220.838500	5.425800
1212.003650	6.021000
1218.231317	5.769800
1226.180217	5.303000
1223.333017	5.474000
1224.823400	5.425500
1215.952200	6.092400
1216.322583	6.088000
1223.799150	5.697000
1229.054850	5.385600
1226.712583	5.530300
1233.614417	5.113700
1221.548667	5.978300
1218.711950	6.156600
1223.245133	5.912200
1230.241583	5.518300
1237.124633	5.230000
1223.436500	6.091200
1226.210200	6.004500
1235.882200	5.405700
1227.186900	5.904900
1227.006283	5.931700
1229.512117	5.925800
1234.654867	5.674100
1241.616467	5.296400
1238.432700	5.481900
1233.855517	5.766200
1229.024033	6.063400
1242.287233	5.354500
1241.384700	5.519400
1243.475333	5.429800
1243.241317	5.444900
1240.145083	5.640400
1237.647833	5.921500
1233.163067	6.230900
1239.374067	5.939000
1242.934200	5.740200
1239.478300	5.959500
1246.088900	5.561700
1243.222200	5.892300
1239.352467	6.129800
1236.555000	6.310500
1237.079483	6.302200
1251.054700	5.537700
1249.165083	5.634700
1246.019250	5.877900
1250.702400	5.590800
1244.907800	5.974800
1254.551333	5.394100
1244.894650	5.988000
1239.178950	6.341700
1244.098467	6.124400
1246.241717	6.077900
1248.438100	5.983500
1252.351567	5.759300
1251.730933	5.846800
1254.355967	5.811200
1249.167400	6.149400
1253.629300	5.925000
1250.563917	6.127100
1258.152250	5.825100
1263.137417	5.544500
1265.918833	5.443900
1258.613600	5.903400
1256.118917	6.087800
1266.636867	5.481200
1265.668117	5.529500
1264.203133	5.610400
1263.580650	5.639100
1263.503983	5.630500
1252.695517	6.466100
1258.660500	6.149400
1269.649700	5.540700
1262.244850	6.002100
1270.217700	5.558700
1267.927300	5.724600
1275.665817	5.296400
1264.248083	5.977600
1265.795850	5.904900
1271.072250	5.759700
1276.824083	5.430400
1256.388133	6.689200
1265.912000	6.128100
1269.340833	5.945800
1267.931450	6.038100
1278.248850	5.567100
1277.010883	5.655100
1274.660883	5.808100
1267.456867	6.230000
1266.992367	6.409700
1281.479750	5.594700
1282.886800	5.569200
1283.735917	5.504000
1287.968567	5.256200
1281.287600	5.668800
1279.571317	5.879000
1285.095650	5.614200
1275.418467	6.261500
1276.878350	6.186900
1275.984600	6.219600
1276.758867	6.204500
1280.450817	6.087200
1279.414767	6.251600
1278.109800	6.379800
1279.934733	6.325900
1284.961033	6.030100
1282.199000	6.205800
1278.405983	6.550000
1280.504950	6.450300
1283.511183	6.296500
1291.451933	5.818300
1291.860650	5.783700
1283.408450	6.373200
1289.435067	6.041900
1288.742083	6.154900
1295.363967	5.738900
1293.241000	5.880900
1294.194033	5.835400
1300.988617	5.570600
1298.723317	5.741000
1297.528033	5.848900
1297.104750	5.872200
1302.063717	5.600600
1301.644600	5.629800
1305.763483	5.464300
1301.135850	5.721900
1297.050550	6.006300
1299.233850	5.877600
1295.214467	6.160700
1294.677600	6.241200
1287.459833	6.727900
1292.347283	6.514000
1295.899567	6.302000
1293.132417	6.504800
1289.870500	6.804000
1299.786117	6.350300
1300.448500	6.327300
1299.479367	6.412700
1294.745183	6.738400
1306.774050	6.174300
1301.708833	6.511000
1306.744733	6.275200
1307.467317	6.251000
1306.066533	6.346600
1309.450433	6.142900
1312.628383	6.087100
1308.127317	6.384800
1310.265917	6.326000
1310.884517	6.297200
1323.017200	5.557200
1319.335017	5.794700
1320.864683	5.797900
1316.195883	6.132700
1316.412133	6.174100
1320.895183	5.895700
1312.618817	6.416600
1318.382500	6.049800
1313.420283	6.426700
1322.862267	5.950100
1312.068767	6.599300
1321.654633	6.030700
1325.371917	5.835500
1321.209633	6.210700
1321.297633	6.214000
1315.249567	6.578000
1318.458750	6.402300
1316.930450	6.651000
1324.572700	6.213300
1331.158317	5.849300
1318.058433	6.640000
1323.045483	6.397900
1323.624467	6.380900
1331.613517	5.897600
1321.907267	6.469700
1321.949117	6.590900
1325.504450	6.388800
1335.981533	5.783200
1328.371350	6.254100
1326.277100	6.439800
1335.653650	5.921400
1328.880967	6.357800
1332.455417	6.169700
1337.584850	5.904900
1330.657900	6.308400
1331.894883	6.235900
1330.953867	6.422900
1339.607850	5.944200
1332.574533	6.418900
1339.889717	5.987000
1332.963933	6.416500
1340.825183	5.950300
1343.154717	6.009800
1340.782650	6.122400
1336.585200	6.381600
1339.609200	6.195600
1340.383933	6.306100
1334.545617	6.683000
1334.164533	6.744100
1340.574500	6.372300
1336.607933	6.658600
1341.612400	6.357900
1351.802933	5.872300
1352.564133	5.886100
1350.559183	6.041200
1357.992000	5.604000
1349.203783	6.108400
1347.168117	6.240500
1345.803100	6.460800
1353.012933	6.071500
1348.695050	6.347700
1343.776800	6.658800
1345.780533	6.610900
1344.464950	6.820800
1347.780650	6.659400
1356.068150	6.218700
1352.752667	6.418100
1356.882900	6.189000
1353.150117	6.406100
1358.381833	6.274300
1350.372417	6.773900
1359.791500	6.258900
1360.759417	6.215600
1363.143450	6.091200
1367.548117	5.840300
1374.782283	5.483200
1359.919000	6.393600
1358.284150	6.521700
1366.424050	6.043200
1363.506417	6.320000
1366.432683	6.191800
1371.376633	5.958400
1364.174750	6.439800
1362.966300	6.538800
1363.681600	6.501600
1368.396817	6.260600
1377.503017	5.847200
1373.285900	6.112200
1365.787700	6.643200
1366.470067	6.607700
1363.897533	6.779200
1367.057417	6.613400
1360.130550	7.121700
1373.094750	6.386700
1364.169200	6.938100
1367.805333	6.725500
1382.264000	5.990700
1374.027750	6.522000
1370.181383	6.811600
1374.101967	6.586700
1367.677133	7.025500
1376.043083	6.546700
1380.243767	6.314000
1385.864383	5.975200
1383.608133	6.306100
1390.953900	5.876700
1383.532117	6.320000
1382.735267	6.367700
1386.062233	6.334900
1386.705033	6.288100
1386.591783	6.334900
1391.874933	5.969800
1386.837750	6.299700
1395.051500	5.943900
1383.585300	6.643200
1392.426967	6.148400
1387.189567	6.462200
1389.072767	6.363800
1389.805250	6.338700
1386.501167	6.593300
1394.196217	6.165500
1392.847050	6.306600
1384.226033	6.837700
1393.792900	6.273900
1388.378133	6.606100
1392.574100	6.551700
1390.687983	6.682600
1402.765517	5.985800
1394.738433	6.457600
1400.341300	6.222600
1404.825550	6.018300
1396.925417	6.544700
1400.217167	6.330200
1399.091083	6.416200
1407.751767	5.908400
1403.078700	6.287400
1403.908233	6.312100
1400.069300	6.551400
1404.912067	6.318200
1409.767883	6.043900
1399.627083	6.660100
1404.654617	6.422000
1412.891850	6.054600
1418.055567	5.752100
1414.858867	5.923700
1412.897750	6.030000
1402.926667	6.763700
1415.851833	6.027700
1407.159200	6.598500
1411.509667	6.352700
1409.385150	6.502800
1407.944267	6.583400
1419.123800	6.043200
1417.036167	6.212600
1419.269067	6.119900
1411.456817	6.608300
1416.435667	6.314000
1414.961467	6.402800
1410.546933	6.777100
1413.895500	6.655800
1406.808917	7.174100
1413.836167	6.747800
1418.971117	6.460100
1422.117383	6.281800
1418.731483	6.550000
1425.003867	6.288800
1423.306883	6.413200
1423.969783	6.376900
1423.612350	6.439800
1431.573383	6.095500
1420.020917	6.799400
1420.062933	6.864100
1426.229883	6.510700
1423.958200	6.675300
1424.183733	6.679600
1437.977833	5.959300
1426.866917	6.674900
1442.678733	5.817400
1424.077950	6.918900
1434.150617	6.334400
1436.773283	6.185800
1433.980467	6.516800
1435.379733	6.453400
1426.771250	6.980100
1440.659167	6.154100
1436.277250	6.473700
1441.470567	6.247100
1438.187367	6.464600
1443.725550	6.171000
1438.983217	6.469700
1440.187617	6.406100
1438.233933	6.539500
1443.018817	6.369500
1445.783067	6.246500
1438.988633	6.702100
1438.260950	6.762000
1446.209767	6.304100
1443.908033	6.426400
1447.881533	6.345400
1443.118250	6.640800
1436.188667	7.074500
1439.271733	6.894700
1442.034300	6.894900
1444.873800	6.753000
1445.981317	6.758000
1447.717150	6.654000
1451.505583	6.389500
1451.802200	6.379500
1456.880100	6.161400
1450.670033	6.591700
1448.419567	6.755600
1450.771650	6.656400
1456.562117	6.324500
1454.308100	6.456600
1451.399217	6.648800
1456.893267	6.457700
1456.783650	6.487500
1463.877450	6.086700
1454.733033	6.641800
1457.747117	6.458900
1452.353367	6.779300
1456.509733	6.711700
1460.011400	6.501900
1460.804400	6.496500
1460.128033	6.541300
1463.003967	6.446600
1466.754850	6.248400
1461.940617	6.559700
1452.858550	7.121700
1464.996600	6.442800
1466.639383	6.387400
1463.469167	6.623900
1466.080867	6.495800
1458.393817	7.014200
1467.124267	6.521600
1459.409500	7.008900
1463.084400	6.789300
1466.156950	6.675900
1458.017300	7.212600
1466.890133	6.712600
1468.821117	6.593300
1471.943400	6.490500
1469.814533	6.781900
1472.881167	6.618200
1472.449683	6.703600
1476.874117	6.439100
1468.875150	6.915900
1468.352417	6.974000
1461.905267	7.403600
1471.041717	6.886100
1478.499333	6.529600
1474.552400	6.783900
1476.646517	6.671900
1476.838800	6.684600
1473.781350	6.967500
1479.234083	6.669100
1492.861117	5.876900
1486.195683	6.266800
1484.759300	6.466500
1479.586750	6.839100
1483.398533	6.733600
1477.350333	7.068700
1473.210733	7.344100
1475.243533	7.239700
1477.986667	7.173200
1485.764017	6.809900
1486.572850	6.807000
1491.038083	6.530800
1492.596583	6.469600
1484.326500	7.096800
1489.334200	6.844500
1486.487550	7.045800
1487.952850	6.989100
1491.474633	6.793300
1490.316900	6.872400
1495.807450	6.598500
1488.724767	7.039400
1494.028650	6.735900
1495.630600	6.648900
1493.421300	6.800400
1489.189117	7.070900
1492.900633	6.982900
1494.724450	6.900000
1489.202300	7.294800
1492.619733	7.102000
1487.865817	7.414700
1497.404917	6.868100
1497.134117	7.064000
1501.581850	6.807600
1501.048583	6.853900
1500.223833	6.918100
1504.756800	6.796500
1507.952633	6.602800
1508.224150	6.598800
1509.362200	6.517200
1506.461100	6.760500
1515.345950	6.349200
1508.427550	6.773100
1509.922633	6.746500
1510.547083	6.717400
1508.503183	6.907900
1513.064267	6.655400
1521.591733	6.164800
1511.671100	6.745500
1509.271067	7.035800
1513.355150	6.831900
1510.389617	7.043000
1507.340483	7.270900
1513.053467	6.947600
1516.879417	6.735800
1509.785433	7.331500
1513.845867	7.114100
1516.769983	6.964300
1517.232667	6.958400
1512.186067	7.357700
1519.154750	7.023000
1526.456917	6.612500
1529.157700	6.492300
1528.889267	6.508700
1530.022500	6.442800
1516.131967	7.286000
1520.620933	7.072000
1521.455367	7.031000
1525.441933	6.861400
1520.554217	7.148600
1524.994250	6.905100
1523.597667	6.993200
1527.794333	6.903700
1534.000117	6.573200
1525.370417	7.095500
1522.478250	7.258800
1528.543683	7.045000
1526.077033	7.246300
1525.334717	7.397900
1530.609717	7.074200
1533.487400	6.899700
1527.516867	7.294400
1541.254300	6.534300
1534.784233	6.940300
1533.233883	7.048300
1529.986533	7.267900
1537.317033	6.848200
1538.929667	6.770300
1543.269950	6.609300
1540.124217	6.866000
1541.641367	6.794300
1539.613033	6.910600
1537.273117	7.137800
1539.778133	7.094200
1540.092067	7.097900
1542.553050	7.000200
1533.615100	7.545000
1531.062267	7.727300
1539.836967	7.252100
1543.967533	7.139200
1537.187150	7.590900
1544.304700	7.234800
1547.681567	7.052900
1549.106933	6.964900
1547.853483	7.068400
1555.104550	6.796500
1552.206450	6.992100
1548.709217	7.184600
1552.606067	6.944900
1553.929800	6.968400
1546.047117	7.472600
1564.564550	6.401400
1558.974350	6.737400
1557.005667	6.863600
1559.481733	6.716500
1551.932867	7.182500
1552.966783	7.169500
1549.501933	7.405600
1560.059633	6.793900
1560.038933	6.821500
1549.670167	7.449200
1555.529317	7.141700
1561.441717	6.993200
1563.528000	6.873900
1570.096567	6.504500
1561.631150	7.004100
1568.263633	6.761500
1570.181900	6.684000
1560.831917	7.304000
1571.750933	6.670600
1573.570267	6.577400
1566.931800	6.948600
1575.636450	6.504600
1564.958350	7.171200
1564.061583	7.285300
1561.321267	7.454300
1560.497067	7.544300
1565.604633	7.249300
1562.308017	7.664600
1570.140900	7.196400
1569.060850	7.275600
1570.137450	7.245600
1578.133017	6.845000
1576.545483	7.039600
1563.985617	7.838000
1568.725850	7.606200
1568.902033	7.617700
1578.383350	7.070700
1577.870583	7.147900
1570.256883	7.744900
1578.337650	7.317000
1592.230650	6.520500
1577.345650	7.410900
1582.271650	7.107900
1577.428283	7.416400
1582.715750	7.242900
1580.259517	7.393100
1579.559333	7.454800
1583.457083	7.221400
1584.375800	7.206900
1585.166400	7.174800
1575.907417	7.803500
1581.885400	7.479900
1585.917233	7.272100
1594.786183	6.742300
1587.237850	7.275900
1590.450800	7.191000
1591.774333	7.159300
1594.269950	7.069200
1593.190617	7.139900
1602.510317	6.576200
1596.242633	6.991300
1594.411733	7.210900
1590.802633	7.465600
1592.075150	7.397700
1592.244000	7.449900
1597.247567	7.269200
1598.263917	7.234700
1600.919867	7.120700
1602.292967	7.041500
1596.075000	7.404000
1604.430583	6.934600
1607.946050	6.862200
1603.460700	7.149000
1607.300983	6.964300
1597.968100	7.521000
1607.496900	6.958800
1607.216850	6.962100
1609.298733	6.988000
1603.833783	7.341400
1606.500633	7.189900
1603.471750	7.350000
1612.913867	6.896600
1609.476867	7.161200
1605.555600	7.478400
1610.132217	7.193900
1617.222100	6.807000
1604.594017	7.576700
1606.580367	7.500200
1607.677200	7.566900
1611.913367	7.320200
1611.416367	7.413200
1609.367367	7.562300
1613.422350	7.340400
1610.605850	7.529400
1626.714067	6.625400
1620.839883	6.992800
1608.142767	7.775600
1612.327717	7.544300
1611.556367	7.770800
1621.642333	7.221400
1626.357933	6.971800
1619.555200	7.386900
1614.463333	7.686400
1617.379133	7.547200
1625.808667	7.184600
1616.354983	7.797700
1622.651100	7.478400
1622.981450	7.467300
1625.254200	7.326300
1626.072600	7.285800
1623.253633	7.594600
1623.889300	7.629900
1614.422583	8.254600
1623.466733	7.710400
1624.396817	7.700900
1626.058517	7.639400
1629.030583	7.477600
1630.212100	7.436400
1629.410383	7.518100
1630.048983	7.493200
1627.886617	7.655900
1630.184617	7.694300
1627.681317	7.869800
1631.816650	7.676700
1635.648617	7.438100
1642.585583	7.158100
1647.951717	6.852500
1638.024000	7.475400
1634.986050	7.670700
1642.169900	7.248900
1642.890767	7.224500
1644.826517	7.227200
1644.582817	7.267100
1652.055383	6.883900
1639.758117	7.626500
1632.548483	8.052700
1642.950267	7.453400
1639.938417	7.785200
1642.452517	7.707500
1638.994817	7.961900
1647.809767	7.507400
1653.974583	7.139200
1646.598850	7.602900
1656.709183	7.015300
1652.241917	7.323800
1639.793750	8.063700
1648.151533	7.768600
1651.069150	7.588500
1653.519117	7.443200
1649.578983	7.690300
1659.992450	7.224000
1653.285383	7.613200
1659.488017	7.246400
1650.130300	7.794600
1663.684467	7.116500
1660.291300	7.356600
1656.748417	7.623500
1660.053467	7.449500
1661.829617	7.350200
1656.297083	7.695400
1669.736600	7.069200
1656.266617	7.883600
1657.079217	7.864700
1659.923833	7.716100
1662.235800	7.595700
1665.843567	7.430300
1670.225483	7.188400
1662.811500	7.698600
1655.816500	8.130000
1655.782217	8.129600
1668.066917	7.421900
1666.911367	7.661000
1671.063167	7.462100
1676.534550	7.227900
1685.042100	6.729600
1668.978633	7.680700
1678.587033	7.102000
1675.130633	7.430500
1677.658350	7.327800
1678.279533	7.352500
1672.783800	7.689300
1669.495900	7.914000
1678.219017	7.400300
1668.887750	7.983000
1673.191350	7.805400
1676.300417	7.633700
1676.211050	7.664400
1680.011717	7.488800
1676.001233	7.840300
1672.241267	8.094800
1676.316567	7.895300
1680.622833	7.695700
1681.659600	7.789800
1684.785783	7.616500
1682.977700	7.791300
1685.965633	7.651000
1690.648283	7.432900
1682.410250	7.936200
1683.877067	7.862000
1686.105667	7.759700
1683.143767	8.116100
1686.940233	7.897300
1690.415233	7.677700
1678.733617	8.402900
1690.970300	7.793100
1691.825017	7.810100
1708.139150	6.889200
1702.247450	7.246800
1696.248350	7.630500
1693.392233	7.769200
1705.146300	7.145700
1702.971683	7.333600
1698.930500	7.590900
1705.162883	7.266700
1695.358567	7.863200
1693.881683	7.943200
1691.573283	8.127100
1689.968783	8.390200
1698.303450	7.935000
1696.726817	8.027900
1699.416683	7.927900
1692.735967	8.443400
1696.554000	8.263500
1701.682000	8.015400
1706.721700	7.713600
1708.166867	7.641500
1700.491750	8.104800
1708.121933	7.723600
1716.533150	7.234800
1714.625850	7.415400
1709.146883	7.746700
1712.505217	7.555100
1704.460967	8.069300
1719.316817	7.321700
1714.980333	7.625800
1704.503650	8.237100
1714.755000	7.639200
1720.277617	7.388000
1709.845350	8.033700
1715.436367	7.814000
1712.245767	8.029400
1723.194067	7.389200
1724.025583	7.346200
1716.542867	7.859000
1714.274150	8.116800
1721.129317	7.747400
1724.380267	7.615400
1720.157767	7.879400
1725.344150	7.559700
1727.335017	7.439000
1722.403600	7.879800
1731.354733	7.375600
1719.637617	8.095400
1718.932583	8.114800
1729.643067	7.532300
1722.419000	7.970700
1722.621367	8.008100
1720.331400	8.186400
1734.278750	7.389900
1732.688567	7.503500
1725.152933	8.091100
1735.006383	7.546000
1723.443600	8.270400
1720.688767	8.484800
1729.798033	7.966900
1730.412133	7.950400
1736.700733	7.665100
1729.500717	8.204900
1729.997433	8.165500
1742.554383	7.441600
1739.859233	7.673200
1735.026950	8.015400
1732.962017	8.189900
1740.172400	7.884000
1738.631833	7.986100
1743.684533	7.692100
1736.183150	8.172900
1740.376333	7.988200
1745.317817	7.717400
1736.514400	8.247600
1741.711483	7.944400
1735.562300	8.331300
1739.895817	8.119100
1740.820883	8.249800
1749.306250	7.759200
1750.109167	7.734800
1752.172150	7.614000
1749.918833	7.883500
1750.930367	7.856000
1759.614600	7.406100
1753.708417	7.765100
1751.300433	7.904500
1751.975317	7.881500
1754.117833	7.895500
1755.741850	7.849800
1748.311650	8.363700
1749.987033	8.267200
1752.796567	8.125700
1753.541283	8.101600
1754.893900	8.104500
1759.560983	7.939300
1758.128617	8.035100
1751.520417	8.447600
1758.128533	8.152000
1763.123333	7.932700
1760.411783	8.123500
1762.604767	8.028200
1761.966033	8.056000
1759.439117	8.235500
1761.643183	8.096500
1757.828667	8.504600
1768.143433	7.920700
1768.217883	7.972600
1766.593067	8.067500
1771.955783	7.747600
1765.806850	8.118900
1761.093717	8.595500
1768.472533	8.172100
1775.056750	7.801800
1770.213033	8.091400
1779.481067	7.581800
1771.474700	8.064600
1775.980033	7.829800
1768.986200	8.259600
1780.478350	7.591500
1770.758017	8.202200
1771.626983	8.254600
1773.969633	8.237800
1772.338767	8.366300
1781.985217	7.818500
1780.644050	7.920300
1785.107767	7.803500
1779.665117	8.139200
1791.007233	7.532800
1780.191400	8.187900
1780.764333	8.240200
1786.014833	7.943200
1782.796883	8.164900
1788.117700	7.853400
1794.696417	7.521800
1782.127167	8.295800
1786.961683	8.005300
1786.777450	8.024700
1789.120733	7.963000
1791.980433	7.809700
1787.309433	8.121700
1792.723250	7.821000
1798.479533	7.688200
1788.149750	8.299500
1790.517900	8.194500
1784.791800	8.564700
1787.154883	8.480200
1788.931900	8.422500
1789.946950	8.370000
1792.227167	8.257100
1789.790950	8.412000
1793.178150	8.205300
1784.338750	8.806200
1796.720867	8.241500
1798.516183	8.165500
1805.215333	7.819900
1796.437917	8.402300
1804.799067	7.970600
1796.030217	8.498900
1799.410750	8.304000
1795.069217	8.597300
1795.669750	8.728800
1800.268950	8.486100
1799.874217	8.514200
1802.017533	8.390200
1798.836400	8.661900
1809.893100	8.040900
1802.720817	8.474900
1808.672050	8.172300
1805.796900	8.363700
1812.180983	7.977700
1805.025483	8.556700
1805.431267	8.606000
1805.661633	8.651500
1811.146933	8.357200
1804.499417	8.789600
1810.867650	8.387100
1809.436017	8.521700
1811.534817	8.514800
1816.416333	8.267500
1819.612033	8.122300
1817.188533	8.284600
1819.350900	8.146800
1815.570100	8.391000
1816.402033	8.418100
1817.100117	8.384900
1813.372900	8.619900
1821.296200	8.156700
1821.865350	8.200200
1817.319917	8.492000
1827.620533	7.945900
1823.096583	8.236600
1829.022050	7.901700
1829.872733	7.852300
1830.083083	7.994500
1825.115150	8.316900
1833.051667	7.856000
1831.539750	7.953900
1830.769900	8.091600
1833.113717	8.028800
1832.413817	8.149700
1838.464117	7.806200
1835.769633	7.968400
1834.456267	8.060900
1824.141933	8.784400
1832.687200	8.390400
1842.108433	7.820200
1832.546583	8.484100
1833.295433	8.451100
1839.470083	8.081500
1835.659233	8.305300
1836.589817	8.333000
1831.880467	8.654000
1838.029467	8.465600
1839.814550	8.371500
1838.981917	8.431700
1836.791567	8.576300
1849.762033	7.971400
1842.910767	8.364500
1848.716233	8.000800
1849.775283	7.946200
1842.666350	8.493600
1843.855600	8.478600
1847.357033	8.345500
1846.166417	8.435600
1853.756467	7.966100
1850.432867	8.184500
1861.276000	7.642500
1857.561150	7.914300
1852.635500	8.249400
1862.525217	7.707200
1850.327400	8.427000
1851.595767	8.372600
1849.292517	8.586500
1851.889883	8.571700
1852.864433	8.522500
1861.055883	8.036200
1863.223283	7.935400
1856.089550	8.487300
1866.558467	7.885700
1866.594183	7.923100
1859.479950	8.370000
1867.494833	7.906900
1867.709150	7.888800
1863.992683	8.225200
1869.642767	7.941200
1865.320417	8.261600
1869.389250	8.028600
1859.899967	8.607800
1870.069050	8.022000
1867.229350	8.261100
1872.410400	8.013300
1866.620350	8.401500
1872.978467	8.060900
1862.300133	8.693800
1868.966550	8.279100
1877.482383	7.809700
1872.905550	8.169900
1867.775367	8.500100
1870.048483	8.389000
1865.802533	8.660200
1863.256100	9.011100
1867.263350	8.777700
1873.851550	8.419800
1881.180283	7.998700
1877.673450	8.388000
1888.998117	7.702400
1886.218817	7.928000
1882.952867	8.124500
1876.665633	8.569300
1876.729733	8.568700
1876.938183	8.570200
1880.500350	8.368200
1881.884117	8.354300
1889.023700	7.944900
1877.802300	8.653200
1876.132033	8.762500
1883.519617	8.363300
1882.252900	8.504700
1880.746433	8.620000
1883.967983	8.477500
1885.334233	8.431600
1887.484733	8.314900
1879.552217	8.837300
1885.828133	8.640100
1894.829717	8.149700
1884.516033	8.812300
1886.727617	8.682500
1897.131983	8.102200
1890.166567	8.527400
1894.561617	8.413100
1894.032417	8.471900
1892.596733	8.584300
1893.140600	8.568600
1897.034067	8.453300
1893.413200	8.719200
1913.607583	7.593700
1901.568300	8.297100
1893.010033	8.823700
1895.523233	8.689300
1904.577650	8.192700
1900.377233	8.535100
1903.456250	8.359500
1899.093883	8.657200
1898.954067	8.693900
1902.325317	8.497700
1902.624300	8.541600
1905.856567	8.490200
1900.993767	8.785100
1902.621200	8.703300
1899.783967	8.938100
1912.235800	8.315100
1904.803600	8.775900
1908.476183	8.623900
1913.683717	8.319800
1909.328050	8.624100
1908.047367	8.711300
1905.639950	9.009900
1908.879233	8.865700
1904.060667	9.247700
1906.656467	9.135200
1909.665267	8.994500
1916.775183	8.592400
1932.124967	7.822400
1918.718950	8.628600
1923.962083	8.335900
1918.625483	8.629000
1927.051467	8.227700
1924.271050	8.452800
1925.530433	8.393800
1919.883233	8.791900
1941.457467	7.509800
1931.201850	8.121300
1926.307133	8.436100
1926.302767	8.550800
1931.489667	8.261900
1938.809317	7.889900
1933.152217	8.204300
1923.722983	8.739100
1927.213967	8.537000
1930.873367	8.394500
1927.386967	8.607500
1925.903467	8.743100
1928.777350	8.575800
1933.803817	8.357000
1927.969367	8.714600
1933.386033	8.448700
1931.546550	8.588700
1922.245583	9.209200
1936.195850	8.380500
1937.160083	8.516200
1941.960633	8.296600
1945.958233	8.104300
1938.316333	8.571400
1937.092850	8.671800
1935.854767	8.764700
1946.811533	8.275600
1951.291783	8.035600
1929.943333	9.361300
1943.909700	8.543100
1947.140683	8.447200
1955.193050	8.032200
1955.559167	8.038100
1952.779850	8.245500
1949.561383	8.445400
1951.568667	8.343800
1952.094833	8.313700
1954.000917	8.269400
1952.469150	8.403900
1947.385450	8.726700
1952.660700	8.419500
1944.536250	8.927100
1939.584200	9.277800
1948.514333	8.915500
1946.631383	9.045700
1953.677000	8.654400
1961.028783	8.244100
1953.229700	8.817600
1950.953150	9.021000
1956.198000	8.826300
1962.781383	8.434600
1957.716017	8.768600
1956.083717	8.887700
1963.153400	8.614500
1961.193600	8.790900
1959.279767	8.968700
1960.376833	8.936500
1954.285650	9.338100
1960.375183	9.007300
1965.526817	8.745200
1966.831667	8.719700
1963.706567	8.923700
1961.727633	9.051100
1961.712567	9.117800
1965.981683	8.923900
1962.421300	9.165000
1962.386800	9.222300
1972.204550	8.663100
1965.894683	9.044200
1963.679617	9.210800
1970.257800	8.976300
1976.645433	8.632300
1965.312833	9.367900
1973.962283	8.861200
1977.658250	8.661900
1973.647967	8.922500
1969.628067	9.337700
1977.466867	8.889500
1974.990817	9.072800
1974.556917	9.082700
1979.017733	8.956600
1977.911450	9.080700
1995.803650	8.097300
1982.825367	8.861600
1980.810367	8.988200
1986.767767	8.648000
1985.094700	8.765400
1986.144717	8.751500
1980.329900	9.122100
1982.993983	9.058900
1975.750950	9.535800
1995.341083	8.396200
1989.202483	8.765800
1996.449583	8.500300
1995.072917	8.607500
2004.093150	8.116800
1995.345350	8.642700
1992.376583	8.813500
1991.098483	8.908300
1995.859033	8.710900
1987.971750	9.192900
1988.256533	9.230200
1995.598167	8.787500
1988.157583	9.391000
2005.106683	8.437600
2010.917600	8.107800
2002.820000	8.587200
2011.990850	8.055300
2007.382067	8.330000
1997.489367	9.000200
1989.298733	9.506200
1995.005633	9.198700
1991.481750	9.487500
1992.781183	9.445900
2001.385683	8.938600
2001.142900	8.988900
2005.614667	8.875100
2004.153017	8.973800
1999.198517	9.276200
2001.928750	9.127500
2008.888417	8.790200
2006.116083	8.974900
2016.065567	8.453000
2006.762967	9.014300
2013.743750	8.597100
2007.325400	8.982600
2001.538333	9.517600
2012.313967	8.888300
2007.709467	9.159800
2003.438433	9.426700
2008.646883	9.264100
2011.362567	9.145700
2007.769917	9.429500
2018.941983	8.792200
2027.630933	8.309200
2020.858850	8.691000
2023.536000	8.707200
2020.633483	8.917300
2024.791550	8.705700
2019.359333	9.060400
2016.542133	9.230200
2019.002850	9.116100
2023.563450	8.913900
2025.608883	8.903200
2026.316017	8.912000
2023.952483	9.097300
2033.988850	8.532600
2027.000700	8.939100
2021.354533	9.339100
2024.696367	9.287000
2028.629283	9.056200
2025.306067	9.269900
2024.398900	9.346500
2030.210800	9.048900
2024.340233	9.420400
2035.114917	8.781200
2021.622367	9.601700
2032.017933	9.013000
2024.913117	9.486800
2023.142317	9.730700
2030.258117	9.340700
2030.734550	9.366600
2027.769700	9.546000
2036.706167	9.161300
2032.865267	9.443300
2043.255183	8.894500
2038.665117	9.174500
2032.524800	9.548400
2039.400833	9.177700
2046.015550	8.880300
2030.840267	9.885800
2035.516000	9.659400
2032.653933	9.897100
2033.877867	9.867800
2044.441367	9.260000
2039.652900	9.619800
2050.017833	9.134500
2041.929417	9.640100
2047.287233	9.346600
2048.853767	9.256400
2049.055233	9.262300
2053.590733	9.021100
2048.076067	9.433400
2052.616983	9.182200
2065.416083	8.427100
2058.510550	8.828100
2047.996733	9.588700
2053.641900	9.314100
2067.968917	8.533400
2051.952633	9.500800
2057.353850	9.211800
2056.944617	9.246800
2056.075350	9.478500
2065.837867	8.920700
2068.886133	8.773900
2063.581817	9.068900
2064.613483	9.095800
2070.095117	8.854400
2066.171900	9.124500
2063.178433	9.373600
2068.379967	9.095300
2070.432433	9.010600
2073.605767	8.896100
2068.634583	9.297700
2066.748600	9.428100
2073.294883	9.088600
2068.183233	9.404500
2073.376733	9.078100
2076.983133	8.873500
2072.888250	9.183600
2082.750833	8.596300
2076.077450	8.969400
2074.854350	9.059400
2067.304867	9.673400
2071.116933	9.470800
2077.844483	9.168700
2081.983683	8.939500
2080.646033	9.057100
2075.602933	9.352600
2094.136367	8.464400
2089.194517	8.771900
2066.383667	10.160300
2082.036933	9.223600
2086.221817	9.156800
2089.348817	8.972900
2081.818367	9.470000
2084.045033	9.361300
2083.311083	9.413800
2093.493367	8.838800
2087.948850	9.193500
2092.220700	8.952600
2088.959033	9.170200
2087.397467	9.320600
2087.381717	9.344000
2085.472517	9.491600
2087.674133	9.368800
2088.191850	9.437400
2090.220483	9.362800
2090.403767	9.450500
2093.828200	9.225600
2084.656883	9.811300
2099.982433	8.903200
2095.050917	9.352400
2101.598600	8.970900
2085.508100	9.987600
2103.154367	8.994500
2092.687500	9.638700
2094.032250	9.568200
2103.589200	9.130500
2094.451450	9.701100
2099.097500	9.447000
2096.229083	9.611800
2108.114433	9.007300
2106.199700	9.220800
2110.230667	8.997500
2101.971383	9.537700
2109.338283	9.134500
2104.806217	9.447200
2103.925433	9.553600
2106.264067	9.549500
2106.882783	9.547900
2112.535333	9.262600
2108.220033	9.523900
2103.104883	9.872500
2106.007750	9.746100
2109.050983	9.746500
2117.560750	9.252000
2111.556433	9.617200
2113.603250	9.475800
2113.329200	9.660900
2121.607483	9.205900
2108.446383	10.062400
2119.837933	9.403600
2110.137667	10.007900
2110.816400	9.972900
2121.329450	9.466200
2119.110483	9.655300
2138.954433	8.548300
2121.042517	9.609500
2125.509217	9.355400
2125.575400	9.358200
2120.069117	9.864800
2112.948067	10.323500
2123.394967	9.705200
2122.313083	9.783700
2128.661333	9.485200
2135.704600	9.162900
2138.004900	9.030900
2135.046483	9.211600
2139.515900	8.937900
2132.143983	9.382000
2137.537850	9.052800
2136.760183	9.280000
2134.967717	9.400400
2131.357417	9.621500
2135.855550	9.345600
2135.668233	9.413800
2139.755133	9.206200
2141.198167	9.138800
2140.046633	9.190600
2131.163250	9.770400
2135.009617	9.539600
2142.978950	9.180600
2137.360700	9.588000
2147.697383	9.078100
2139.610517	9.571700
2144.815783	9.251200
2140.969567	9.535100
2141.632683	9.558400
2151.904017	9.037400
2147.607383	9.331300
2148.602483	9.321100
2145.925767	9.477800
2145.899050	9.508800
2144.266767	9.651500
2150.116500	9.446400
2151.923000	9.369600
2154.638783	9.218800
2154.947000	9.220500
2149.310750	9.710100
2142.850583	10.151200
2150.843017	9.733700
2149.200633	9.853300
2158.511750	9.312900
2157.354700	9.392100
2148.740867	9.976700
2152.516633	9.770800
2159.761750	9.375300
2156.184400	9.596700
2154.872933	9.690400
2157.451850	9.552600
2162.018800	9.466200
2167.659317	9.137600
2161.473433	9.523900
2162.133617	9.521900
2160.483233	9.724000
2163.791133	9.594700
2160.199600	9.846900
2161.127400	9.830700
2159.858067	9.923300
2157.716317	10.096400
2167.891250	9.516900
2169.269400	9.563400
2177.924567	9.042200
2172.766217	9.419000
2173.135433	9.394000
2169.597083	9.631900
2167.790983	9.758200
2173.898117	9.479600
2164.618367	10.039400
2173.573033	9.532300
2167.431333	9.914500
2168.661217	9.930800
2178.820317	9.362000
2174.084933	9.665500
2176.400317	9.527600
2174.800750	9.670800
2179.348100	9.423900
2175.647600	9.792300
2179.719983	9.627700
2170.598133	10.254700
2178.479183	9.808900
2174.581367	10.070000
2173.538900	10.158600
2187.073383	9.534400
2183.022383	9.796000
2182.565100	9.840600
2185.362200	9.672600
2181.825117	9.947300
2184.958100	9.878100
2186.664283	9.822100
2193.159467	9.473000
2190.700650	9.622800
2191.056100	9.620100
2182.607933	10.155700
2184.286083	10.129900
2188.266033	9.951100
2197.637017	9.485900
2194.887533	9.653500
2196.205883	9.593800
2187.464183	10.144600
2192.901367	10.019600
2191.413983	10.145800
2194.091567	9.999500
2192.336817	10.108700
2201.074067	9.755300
2196.141483	10.096900
2203.117850	9.719700
2204.035967	9.676700
2196.159933	10.184800
2196.172533	10.184800
2195.573367	10.321100
2204.579317	9.864800
2205.250083	9.844300
2201.581017	10.103000
2203.453950	10.000500
2204.860917	9.913400
2201.792167	10.120100
2210.444783	9.675100
2216.162333	9.361300
2214.084383	9.502900
2203.670800	10.128600
2208.607583	9.980200
2202.584167	10.378100
2216.649483	9.626200
2215.855400	9.702900
2219.598683	9.492400
2219.868167	9.473300
2215.496667	9.883400
2216.137100	9.882000
2214.522800	10.034400
2217.050550	9.920100
2219.168900	9.798300
2212.811100	10.183500
2210.224667	10.423400
2218.663383	9.935800
2210.491033	10.520500
2211.727600	10.431900
2223.219333	9.913300
2216.723333	10.336900
2223.043833	10.005700
2220.261933	10.239400
2225.015017	9.962600
2231.702417	9.583400
2224.867517	10.022900
2228.785200	9.830700
2225.031300	10.095600
2226.171633	10.189000
2226.126800	10.200900
2234.305517	9.723800
2235.530150	9.661800
2232.013583	10.040500
2226.888183	10.361800
2232.202550	10.060200
2235.726383	9.851200
2230.307617	10.317200
2235.414167	10.061900
2244.749967	9.560600
2239.045317	9.885800
2241.957917	9.699200
2239.353150	9.874200
2233.393617	10.323800
2238.210350	10.038600
2235.250567	10.236500
2239.644900	10.003200
2240.405500	10.042500
2239.213383	10.205800
2241.211600	10.109700
2240.899650	10.182300
2234.308133	10.606300
2245.607900	9.983700
2252.471300	9.577200
2235.633183	10.609900
2247.639333	9.910300
2246.757017	10.129700
2243.224433	10.348000
2249.507217	9.997100
2251.416067	9.876800
2251.372783	10.009900
2252.528733	9.982600
2255.974550	9.812400
2253.319800	9.967200
2244.750417	10.506500
2249.994983	10.229800
2250.069433	10.366300
2245.863733	10.685200
2258.238800	9.972900
2261.203850	9.811500
2249.570000	10.530900
2249.593650	10.551300
2259.840283	9.989800
2258.971083	10.183300
2256.929350	10.313700
2258.672367	10.259000
2251.968183	10.707400
2263.070150	10.181700
2263.238583	10.172800
2262.397750	10.273500
2268.166467	9.947000
2262.950883	10.273900
2267.119467	10.037000
2263.952667	10.297100
2270.501700	9.920100
2272.207483	9.861100
2281.385250	9.306600
2266.312400	10.224900
2271.466617	9.910700
2275.853883	9.728500
2270.067350	10.093500
2263.679817	10.485500
2267.770317	10.255400
2268.994233	10.319500
2271.829350	10.237200
2270.495400	10.354500
2274.613167	10.171400
2271.881917	10.363100
2272.136650	10.389000
2277.665800	10.179900
2278.375317	10.217600
2283.219150	9.943500
2270.046717	10.751900
2278.065033	10.344400
2282.945367	10.168100
2280.175983	10.351000
2289.253783	9.860500
2275.071400	10.714500
2282.040183	10.312600
2275.656600	10.720500
2277.772167	10.645100
2279.649800	10.581900
2282.562533	10.512100
2286.337633	10.297300
2283.984467	10.494200
2290.963150	10.071900
2287.853200	10.391400
2292.283983	10.170400
2285.289833	10.662100
2282.059717	10.881800
2287.553983	10.582000
2280.912600	11.010000
2289.842383	10.630600
2292.142150	10.517700
2296.414233	10.290400
2296.043133	10.332400
2295.368600	10.455300
2296.436100	10.502100
2296.242733	10.553800
2297.565683	10.497100
2296.505400	10.580400
2297.921450	10.512300
2295.989633	10.645600
2296.527800	10.745700
2304.939000	10.308000
2301.837000	10.554600
2307.085200	10.240200
2307.722750	10.186500
2309.005333	10.128100
2300.701100	10.725900
2308.141917	10.333400
2300.808933	10.835200
2311.397783	10.195300
2310.764700	10.238100
2310.200000	10.269300
2316.099917	10.079900
2309.862950	10.495800
2302.167167	11.003000
2308.592217	10.624700
2317.818883	10.122700
2318.633850	10.192800
2320.535200	10.103700
2310.103300	10.750500
2311.721517	10.667300
2316.065217	10.426700
2314.028000	10.585800
2321.295600	10.289700
2318.657700	10.474800
2318.695050	10.489500
2322.561450	10.279200
2321.751717	10.472900
2323.832300	10.408800
2327.190350	10.247700
2326.929967	10.256000
2332.645117	9.906800
2328.111583	10.169800
2328.955217	10.312100
2331.740600	10.201200
2338.431250	9.841200
2337.969683	9.891100
2330.746350	10.336500
2325.525500	10.660800
2334.907550	10.237200
2335.493833	10.227400
2342.644233	9.859600
2327.605050	10.750500
2340.620817	10.037000
2338.577750	10.272600
2328.061700	10.940100
2334.883717	10.585400
2335.443267	10.566200
2338.917283	10.380100
2343.473117	10.116200
2351.574250	9.698700
2347.467050	9.962100
2341.205250	10.412400
2341.436950	10.414800
2339.653350	10.554000
2346.094733	10.163800
2348.214700	10.190400
2346.946983	10.318900
2351.909717	10.090400
2353.252067	10.005800
2352.275567	10.069400
2350.230833	10.184800
2352.338333	10.256500
2353.917683	10.180300
2349.471600	10.462800
2354.010117	10.201100
2355.510367	10.171700
2344.428117	10.879100
2350.898150	10.562400
2351.492017	10.553900
2340.992450	11.211900
2350.622650	10.668600
2352.998483	10.642600
2352.861050	10.806300
2358.880517	10.479800
2351.970183	10.926100
2358.263450	10.580400
2360.841617	10.519100
2356.657233	10.815700
2361.988850	10.591500
2365.157833	10.429300
2359.723750	10.768200
2367.449167	10.311500
2366.640083	10.520500
2362.113217	10.810400
2368.157250	10.508700
2360.954733	10.942900
2367.585000	10.573500
2361.851583	10.933600
2370.466283	10.630600
2376.044033	10.292800
2367.351467	10.821200
2367.927767	10.794500
2378.624717	10.301000
2376.378417	10.459400
2380.462800	10.289700
2379.911200	10.320600
2374.496217	10.646300
2368.714250	11.020500
2376.967700	10.625400
2382.339150	10.399800
2385.804017	10.241300
2386.307283	10.234600
2390.268983	9.986200
2382.203983	10.466200
2385.983833	10.270600
2386.169467	10.340600
2382.347750	10.568700
2375.538433	10.997800
2383.149267	10.597400
2387.521233	10.458100
2384.397217	10.673000
2394.078133	10.153300
2383.723183	10.796500
2381.799333	10.925200
2389.234833	10.489000
2389.138233	10.588600
2391.572817	10.458200
2391.304233	10.487200
2386.480683	10.800400
2384.039433	11.101600
2383.100617	11.207900
2382.758967	11.320700
2392.010317	10.812800
2400.031617	10.405100
2401.588233	10.340800
2397.501033	10.596700
2397.475300	10.595100
2401.062167	10.446200
2396.350650	10.869600
2394.284150	11.014200
2401.538850	10.598700
2398.499683	10.808500
2394.682767	11.204600
2397.399450	11.072400
2399.095000	11.029200
2408.277133	10.486000
2405.485350	10.693500
2401.225833	10.959400
2397.335217	11.285000
2405.717300	10.812600
2409.854000	10.654500
2406.497267	10.871900
2403.901667	11.045600
2404.750883	11.016700
2401.117500	11.457600
2395.360150	11.820600
2392.151950	12.044100
2403.864583	11.357800
2408.164533	11.240200
2417.006283	10.772800
2410.113550	11.233800
2407.501850	11.408400
2404.341417	11.600900
2416.957933	10.867900
2410.986483	11.269000
2423.345117	10.648400
2421.365833	10.812700
2418.960500	10.997400
2411.647383	11.433100
2419.491200	10.982700
2418.344583	11.076400
2423.514817	10.847600
2421.398433	10.987600
2423.519883	10.867900
2428.379850	10.593900
2423.453617	10.961000
2417.084383	11.352700
2422.881567	11.085200
2425.702517	10.917200
2419.790033	11.303500
2421.951500	11.193900
2435.011450	10.592100
2437.509600	10.459500
2423.411417	11.328200
2436.135467	10.575200
2427.587017	11.163800
2428.598017	11.228300
2425.801917	11.468300
2435.198083	10.946800
2438.274667	10.773800
2433.113967	11.100200
2430.223733	11.310400
2441.815183	10.792000
2438.385400	11.022600
2442.062067	10.831100
2442.827767	10.781900
2444.595650	10.685400
2441.517250	10.869900
2439.211667	11.163200
2442.716233	10.975600
2440.951883	11.080600
2439.318617	11.176400
2447.247450	10.848900
2450.113067	10.695800
2442.176467	11.266400
2451.982267	10.704800
2441.286850	11.356200
2444.028783	11.231200
2443.826117	11.381300
2451.537183	10.987300
2459.737250	10.583400
2452.920967	10.972100
2456.754267	10.759100
2452.594467	11.009600
2455.721567	10.924700
2447.846567	11.468900
2451.724267	11.322500
2461.358700	10.767000
2458.606017	10.962500
2458.074050	11.032500
2458.142667	11.113100
2460.007533	11.110900
2455.997133	11.370100
2448.221400	11.860800
2447.645467	11.936600
2456.290950	11.547300
2468.703750	10.856100
2470.931467	10.776200
2471.851433	10.719100
2465.840083	11.097400
2470.980600	10.791000
2473.008167	10.820000
2476.061167	10.641800
2470.155917	11.051300
2474.489250	10.808400
2474.640900	10.788000
2471.628367	10.983500
2469.549367	11.237300
2466.825117	11.460500
2479.471583	10.751200
2473.243683	11.169700
2472.424883	11.229700
2472.160000	11.267700
2465.218633	11.758300
2476.731283	11.101600
2484.591700	10.647000
2471.896583	11.415400
2472.619217	11.460800
2473.897167	11.494700
2477.755917	11.317700
2477.738200	11.408100
2477.959433	11.408200
2484.937900	11.016600
2489.049117	10.781000
2477.123467	11.652200
2490.515717	10.868000
2489.775333	10.939000
2489.692433	10.945300
2490.685783	11.031400
2491.123433	11.051500
2486.860467	11.349200
2484.876150	11.484900
2486.706783	11.394100
2491.281633	11.154400
2494.788233	11.059600
2497.486450	10.975800
2488.382133	11.593900
2489.920767	11.502200
2499.229100	10.959300
2488.839650	11.588100
2497.735967	11.150600
2501.454450	11.017800
2496.409600	11.360400
2503.216400	10.968000
2500.481933	11.167300
2500.454583	11.230300
2497.230150	11.462100
2493.705817	11.754200
2494.621833	11.724400
2496.641600	11.616000
2493.903000	11.803500
2505.266717	11.307200
2505.567533	11.302000
2499.489950	11.652300
2501.317000	11.561400
2498.279333	11.883400
2505.601733	11.507200
2512.632217	11.159600
2514.077567	11.098100
2512.828550	11.193900
2514.570033	11.087500
2507.776383	11.555200
2510.530400	11.442900
2517.889433	11.118400
2521.867617	10.899800
2512.737883	11.412100
2524.632150	10.740000
2520.166200	11.096700
2511.444517	11.693900
2517.436300	11.384100
2513.537600	11.661600
2515.399467	11.572100
2517.919983	11.427400
2518.840033	11.382100
2515.335383	11.760400
2528.299667	11.003000
2521.921200	11.436600
2526.871050	11.159700
2513.286583	12.010000
2524.995967	11.328200
2525.761617	11.307200
2524.969100	11.375700
2534.004783	10.843000
2528.604833	11.170300
2531.759800	11.121000
2531.590817	11.190200
2522.911083	11.775100
2530.282250	11.403300
2515.380533	12.345700
2523.703050	11.880900
2530.814217	11.544500
2533.892717	11.473100
2530.901283	11.687800
2527.030650	11.962800
2527.062667	11.990600
2527.248250	11.995200
2531.868067	11.748500
2526.885433	12.115900
2535.599333	11.622700
2536.743583	11.570500
2535.148967	11.666300
2536.860467	11.648900
2535.477267	11.781200
2537.811700	11.730300
2540.198017	11.601500
2539.937650	11.644200
2541.294383	11.566000
2546.175000	11.404200
2542.429317	11.696000
2547.292717	11.480300
2546.802483	11.517700
2544.313133	11.685700
2551.679100	11.246400
2544.830183	11.753500
2549.334717	11.593400
2546.979983	11.768800
2549.645100	11.610000
2551.680450	11.516100
2554.015117	11.504300
2557.345500	11.335200
2555.734783	11.445100
2554.652083	11.532700
2560.837483	11.188600
2565.642050	10.897200
2553.851017	11.742200
2562.119933	11.294500
2561.809717	11.321900
2554.490933	11.766100
2553.609500	11.841000
2559.932017	11.474300
2563.490867	11.398100
2557.967883	11.734900
2562.753633	11.458000
2567.936417	11.149100
2559.801383	11.777500
2552.743767	12.248300
2568.724767	11.378900
2567.614050	11.452800
2558.894583	12.003700
2563.746167	11.728700
2564.897983	11.787700
2574.774733	11.291500
2576.948933	11.228500
2564.611583	11.981200
2566.382850	11.913900
2568.531233	11.793700
2564.361633	12.127000
2564.432683	12.247000
2574.832483	11.625700
2578.272317	11.484800
2570.777500	11.924400
2571.410933	11.911300
2577.046433	11.598100
2574.953183	11.881000
2575.937700	11.836200
2578.920300	11.698500
2577.117550	11.812200
2573.939917	12.142400
2576.185483	12.062500
2575.638333	12.183100
2579.779383	11.932900
2576.166500	12.161100
2581.984767	11.829200
2585.598900	11.719500
2588.847100	11.600400
2584.647067	11.894600
2587.939500	11.700600
2592.177817	11.472800
2591.285917	11.525000
2585.215483	11.931400
2580.826850	12.330600
2588.344883	11.896900
2590.236867	11.769500
2592.566850	11.720100
2595.271550	11.672400
2595.948050	11.661000
2596.717450	11.686500
2592.666050	11.962800
2594.030000	11.914800
2598.602650	11.649900
2594.930600	12.004800
2599.906017	11.747000
2599.612383	11.833000
2605.101517	11.526800
2597.818567	11.968700
2600.908500	11.798700
2605.383750	11.701200
2604.531517	11.770400
2596.765283	12.246100
2607.424317	11.621900
2597.150450	12.394200
2602.901200	12.095100
2603.651117	12.139400
2602.241150	12.238500
2600.762817	12.343100
2610.042900	11.782500
2610.051083	11.860000
2601.272550	12.465000
2610.562033	11.963500
2615.340417	11.720600
2611.745850	11.953200
2608.133083	12.169900
2613.429183	11.902300
2626.875867	11.224100
2621.578517	11.551700
2607.881833	12.361000
2615.458567	11.953100
2616.293800	12.071700
2616.227750	12.122400
2623.075100	11.767500
2618.490433	12.070600
2625.998200	11.641500
2623.581567	11.795000
2623.511283	11.867500
2625.763983	11.737300
2629.107917	11.579900
2625.391417	11.824700
2617.948767	12.297800
2618.648650	12.284700
2617.203583	12.548500
2623.888550	12.201900
2635.280400	11.496000
2630.374433	11.825200
2630.259917	11.926100
2627.733767	12.159500
2632.559317	11.911400
2632.188017	11.980100
2630.876983	12.058000
2635.463383	11.797000
2629.410683	12.196900
2632.891467	12.109700
2633.292117	12.100700
2632.542350	12.167400
2637.782200	11.857500
2642.450283	11.630500
2635.650750	12.068100
2640.396917	11.869700
2641.192167	11.826500
2643.424167	11.723300
2642.354317	11.796500
2640.947833	11.995600
2640.862533	12.029200
2650.102167	11.560700
2646.674750	11.770200
2653.723267	11.399000
2645.339367	11.894600
2648.192550	11.793900
2646.194450	12.028800
2652.552983	11.695300
2652.415900	11.734200
2647.277400	12.065700
2653.324033	11.734000
2653.140867	11.803700
2651.529517	12.023300
2656.387767	11.745800
2643.442717	12.543500
2648.037300	12.357000
2654.545283	12.098500
2654.756517	12.087500
2660.420683	11.801200
2658.418583	11.939200
2658.904983	11.899900
2658.042300	11.954400
2659.785950	11.959800
2660.755917	11.926100
2654.243983	12.374200
2660.213067	12.017900
2653.655783	12.442000
2656.966700	12.254400
2658.742583	12.337300
2664.206917	12.032900
2659.590233	12.333100
2668.765317	11.798900
2672.148800	11.725200
2666.034217	12.173300
2668.905933	12.094000
2667.720633	12.193600
2673.982700	11.873700
2672.415783	11.938600
2677.623250	11.691300
2681.709583	11.552800
2669.602567	12.308300
2672.739650	12.146400
2672.833983	12.136900
2674.179450	12.070500
2674.705550	12.063900
2677.860250	12.034200
2678.272900	12.046800
2674.517567	12.289100
2671.665850	12.462000
2670.005417	12.696800
2680.510783	12.113200
2675.217183	12.527500
2672.215767	12.727700
2679.886967	12.299300
2681.520967	12.212300
2670.225483	13.029100
2683.676033	12.281500
2688.152650	12.076500
2682.376750	12.462300
2681.483300	12.513600
2689.493033	12.058600
2691.391850	12.055200
2695.696517	11.859200
2692.613500	12.082500
2687.039783	12.454600
2688.922467	12.356900
2695.958117	11.933300
2691.949517	12.209300
2690.321117	12.367400
2689.743733	12.418300
2687.807150	12.552900
2693.933583	12.208000
2687.682967	12.740600
2693.032583	12.465100
2703.530833	11.900500
2695.158167	12.407300
2695.190433	12.427000
2701.427933	12.058000
2700.601433	12.277900
2703.300383	12.153400
2698.355550	12.501300
2705.196917	12.112700
2699.881233	12.430300
2704.298650	12.167400
2713.387783	11.684800
2708.806150	11.975700
2706.212533	12.153400
2705.443767	12.215300
2698.506333	12.715000
2703.512533	12.540400
2715.027467	11.893100
2709.740183	12.240100
2712.697067	12.064700
2703.616033	12.631900
2709.923850	12.324000
2714.839150	12.188400
2714.960283	12.201100
2714.078800	12.317100
2712.936983	12.404200
2711.965767	12.465200
2708.593633	12.664600
2718.748017	12.251300
2714.269817	12.537800
2722.508700	12.075600
2713.607050	12.629700
2717.241633	12.529300
2719.485450	12.453900
2724.241600	12.232800
2729.407200	11.922600
2722.254883	12.400300
2728.577683	12.020500
2724.697383	12.356200
2719.197700	12.744900
2717.067617	12.950600
2724.589433	12.562900
2724.328767	12.572600
2722.802800	12.701100
2735.441533	12.111400
2724.876833	12.789100
2732.829417	12.340100
2730.155450	12.485400
2724.623367	12.844700
2725.422450	12.937200
2730.327067	12.678500
2741.489000	12.064200
2734.014017	12.525500
2725.284733	13.057300
2733.162200	12.620100
2736.264517	12.565400
2728.563200	13.059000
2734.381533	12.763000
2738.787517	12.506600
2734.764183	12.761200
2743.550317	12.215000
2734.466917	12.935300
2740.798333	12.582700
2751.167200	11.965500
2747.858867	12.164300
2745.012117	12.448400
2742.938917	12.642500
2742.893217	12.698600
2739.994150	12.904800
2743.146967	12.737600
2741.770767	12.827600
2742.199500	12.877800
2751.554483	12.420400
2751.635267	12.444200
2751.695017	12.454100
2746.873533	12.783700
2751.658783	12.498700
2746.235367	12.862100
2744.275017	13.133300
2752.220583	12.681400
2756.969883	12.417400
2752.391167	12.705200
2757.274967	12.573200
2753.475550	12.857100
2762.904883	12.375100
2760.736483	12.515500
2761.792817	12.475100
2762.773783	12.441400
2768.479150	12.172200
2763.763583	12.483700
2757.294350	12.909600
2764.317800	12.486000
2761.605033	12.657400
2757.612300	12.910200
2758.509250	13.080000
2768.710567	12.452600
2763.908617	12.730400
2772.595383	12.224200
2768.860967	12.502400
2765.060600	12.853800
2762.950333	13.002100
2764.914550	12.971400
2772.435017	12.553100
2767.220117	12.859700
2768.215933	12.829900
2768.457283	12.908500
2770.601033	12.829000
2770.424467	12.891200
2765.922650	13.175100
2775.072233	12.682600
2769.414017	13.055000
2770.795000	13.103100
2776.985983	12.735700
2785.667167	12.245300
2779.985217	12.591200
2777.606367	12.872600
2778.708600	12.867600
2781.802750	12.754800
2781.321367	12.839300
2784.097567	12.709400
2781.758717	12.827600
2787.182017	12.547400
2775.332517	13.318700
2775.684583	13.337800
2772.421433	13.583500
2779.235567	13.209200
2782.144817	13.064300
2785.156300	12.915000
2779.328700	13.416900
2789.218950	12.878100
2782.507567	13.317800
2787.205500	13.071300
2785.279083	13.208200
2783.356567	13.352000
2784.152650	13.396200
2780.549950	13.638000
2789.940950	13.130700
2793.134400	12.927000
2797.576233	12.793300
2790.388017	13.275500
2799.350150	12.811500
2792.615300	13.246500
2802.966633	12.660400
2801.049400	12.807900
2785.278417	13.876400
2801.381100	12.981000
2795.952400	13.394700
2794.965550	13.416900
2802.608317	13.004000
2800.490033	13.151500
2801.234983	13.165600
2800.828633	13.243000
2801.501650	13.236600
2801.548300	13.260600
2803.748333	13.162300
2799.462383	13.505500
2798.351800	13.603800
2804.632767	13.301300
2800.975400	13.552800
2806.289400	13.282500
2801.642267	13.593200
2804.718150	13.584900
2814.830717	13.043600
2810.734850	13.365300
2809.313217	13.454600
2814.085600	13.217100
2821.936967	12.763100
2807.209650	13.801200
2813.053950	13.490400
2821.636233	12.998200
2824.260217	12.845300
2821.778367	13.076000
2827.676133	12.801400
2827.026983	12.878800
2828.177400	12.837300
2832.990567	12.544400
2826.392117	12.934400
2831.112917	12.719900
2827.476300	13.100100
2823.491183	13.359100
2828.385250	13.077600
2823.789467	13.366400
2824.248583	13.504600
2833.737650	12.992400
2838.597983	12.737800
2838.423000	12.762000
2827.815300	13.406700
2827.003883	13.466800
2835.556083	13.106200
2838.618850	12.960900
2836.301067	13.161800
2844.255833	12.670300
2829.279183	13.615000
2840.289000	12.970200
2844.014200	12.787800
2840.246367	13.053800
2835.470283	13.420900
2844.271233	12.917800
2850.913650	12.510600
2844.167117	12.926600
2842.332283	13.124200
2843.592650	13.177500
2847.902933	12.934600
2840.788783	13.372900
2848.143117	12.941000
2831.182383	14.017900
2841.476183	13.433200
2851.829417	12.974000
2844.258100	13.430400
2845.177083	13.398700
2848.901983	13.175800
2847.072017	13.435400
2854.237350	13.067400
2849.908200	13.419900
2852.046083	13.309600
2853.540483	13.262500
2856.423117	13.106900
2854.539800	13.314600
2853.932167	13.451600
2866.512650	12.727200
2855.037633	13.428400
2844.406650	14.085600
2860.713750	13.129200
2866.682833	12.996100
2861.939800	13.256400
2858.028050	13.490700
2855.430917	13.681400
2862.490533	13.306000
2872.108833	12.865300
2873.583467	12.805700
2865.081517	13.351100
2867.212883	13.251700
2868.820767	13.164500
2865.701400	13.351800
2866.757200	13.475100
2868.437950	13.403700
2865.144783	13.636000
2867.953283	13.480900
2870.386567	13.473800
2873.988550	13.294800
2863.222250	14.011500
2871.305550	13.536300
2875.769317	13.288100
2867.489450	13.773000
2874.452017	13.517600
2879.460600	13.284600
2874.295583	13.612900
2880.569800	13.303800
2883.468300	13.154100
2888.252550	12.878700
2881.453367	13.316900
2882.739050	13.383600
2879.678000	13.592400
2876.982000	13.761900
2877.950150	13.752300
2885.126017	13.475600
2884.325917	13.566800
2880.194800	13.839300
2888.383817	13.369700
2883.464183	13.677400
2885.743750	13.545300
2892.615067	13.319000
2894.396450	13.215600
2896.022800	13.107000
2887.914983	13.573000
2883.830867	13.886000
2891.720267	13.444700
2899.378117	13.033400
2899.516483	13.035400
2898.424167	13.145600
2895.542383	13.341700
2896.213050	13.307700
2896.040550	13.349100
2906.550817	12.912200
2904.934683	13.007200
2888.695033	13.961200
2897.707400	13.472700
2901.165117	13.290800
2901.434717	13.418600
2893.705217	13.910300
2901.823183	13.501900
2907.671483	13.176700
2903.634700	13.404300
2902.980883	13.472200
2903.076333	13.624900
2908.007783	13.342300
2909.478267	13.316000
2902.628800	13.728900
2907.110100	13.483200
2907.537917	13.460300
2908.438983	13.577500
2905.642483	13.776100
2911.906050	13.436700
2909.070867	13.607000
2913.456917	13.461200
2919.182750	13.183800
2908.213133	13.908700
2918.468817	13.296200
2917.991800	13.331100
2912.354817	13.691900
2917.955450	13.414200
2918.117950	13.525800
2923.841983	13.204600
2913.101417	13.871300
2910.347733	14.073100
2932.899250	12.748500
2926.992733	13.118800
2923.803733	13.459600
2924.083233	13.472200
2921.730583	13.631800
2922.480533	13.589500
2922.226333	13.717900
2926.065967	13.537100
2923.121217	13.845800
2932.637283	13.304500
2921.632450	13.992600
2924.740733	13.830700
2927.021717	13.822700
2927.131617	13.875200
2936.720300	13.377900
2926.534000	14.002500
2921.788383	14.314300
2930.637583	13.767400
2933.392217	13.689200
2931.799233	13.888300
2933.560533	13.812100
2935.604800	13.719900
2938.712117	13.559300
2946.971683	13.071400
2934.188383	13.858900
2939.643650	13.611000
2939.550833	13.664500
2940.929800	13.645500
2949.047467	13.176800
2942.370617	13.700300
2936.841783	14.060500
2945.268933	13.654000
2943.554550	13.745100
2942.760350	13.836600
2945.363367	13.699700
2947.793950	13.699500
2953.193183	13.432900
2945.588350	13.964700
2945.438250	13.984500
2953.556000	13.508700
2955.283267	13.412000
2949.619417	13.845800
2945.766867	14.089700
2956.341333	13.524100
2947.942983	14.010400
2957.985317	13.484300
2959.006817	13.479800
2956.261433	13.690900
2957.427067	13.679300
2947.612383	14.287900
2953.494017	13.966700
2951.158350	14.163300
2963.415350	13.618200
2959.322417	13.874600
2954.794817	14.171000
2957.352433	14.041900
2963.723983	13.808500
2955.826300	14.319300
2967.342400	13.718700
2963.380750	13.993500
2962.947233	14.048200
2960.262950	14.228700
2956.454283	14.581300
2960.421767	14.416400
2959.625633	14.513200
2971.568233	13.840900
2965.656333	14.200300
2967.011800	14.153700
2976.126383	13.809100
2974.017433	13.941400
2958.189733	14.894800
2967.759500	14.355900
2982.283867	13.542500
2977.189517	13.884800
2977.641917	13.901000
2981.379350	13.726200
2979.562283	13.851400
2982.547350	13.708800
2977.890283	14.025700
2976.155050	14.269800
2977.506933	14.212900
2979.549133	14.114500
2984.173867	13.873400
2974.863083	14.611600
2987.312417	13.888400
2991.832433	13.669300
2989.391817	13.825700
2985.140967	14.157500
2988.746450	13.935900
2983.389600	14.283600
2987.975650	14.024700
2984.651317	14.281100
2989.276517	14.018900
2990.126533	13.959100
2989.857150	14.013000
2985.993300	14.378400
2994.456450	13.935900
2990.934550	14.249700
2993.131733	14.113300
2989.499633	14.365000
2993.774717	14.125700
2996.843400	14.057100
2997.073950	14.145900
3006.190083	13.621000
3009.007233	13.477900
3002.628950	13.839000
3008.490100	13.502100
3001.756617	13.904900
2991.052033	14.655400
2995.736000	14.411400
3005.926117	13.824800
2998.296367	14.296100
3003.453667	14.171600
3010.125333	13.798900
3002.133983	14.366800
3004.850367	14.221100
3010.864950	13.891200
3008.492633	14.051800
3005.983500	14.364000
3009.509433	14.227600
3015.000317	13.987400
3016.505083	13.881100
3006.981233	14.473900
3016.397233	13.927900
3020.130617	13.877300
3018.452783	13.995700
3009.488783	14.580100
3011.698000	14.452200
3009.497467	14.688500
3017.048883	14.337700
3018.737817	14.269100
3017.518100	14.409300
3023.581933	14.068300
3022.068517	14.160500
3022.147067	14.191100
3024.723600	14.203800
3017.908550	14.632500
3020.873350	14.491200
3021.520033	14.473600
3023.399867	14.369000
3019.969950	14.570400
3035.210000	13.792200
3033.417383	13.913200
3027.591983	14.263900
3031.289650	14.055600
3026.149917	14.496200
3025.791767	14.599100
3040.821667	13.793300
3037.038517	14.039000
3034.348867	14.188700
3037.158533	14.027200
3035.666633	14.212900
3038.793133	14.083600
3042.136467	13.814300
3040.166367	13.953800
3042.673350	13.852500
3051.307050	13.460700
3051.217467	13.471400
3050.747817	13.534100
3044.177483	13.933900
3043.805017	13.952300
3045.330667	13.890200
3043.473217	14.121200
3052.075950	13.657800
3050.057017	13.831100
3041.994250	14.347800
3045.341400	14.166300
3042.232033	14.381500
3045.922200	14.338200
3044.525767	14.469500
3058.119200	13.729200
3054.095417	13.984400
3061.973100	13.517100
3056.701883	13.828300
3050.197233	14.354200
3053.302433	14.240500
3057.096717	14.048600
3055.699817	14.156300
3051.982667	14.425700
3057.219617	14.141600
3060.378267	14.063300
3053.058317	14.607200
3059.445183	14.259400
3062.321917	14.096900
3059.908250	14.294400
3059.602133	14.459500
3071.929100	13.751400
3072.243533	13.766200
3063.064900	14.334900
3060.502417	14.485700
3065.230783	14.208700
3067.469050	14.264100
3067.530550	14.300100
3070.108550	14.133000
3067.893950	14.294100
3065.170583	14.598400
3072.222500	14.238000
3063.206033	14.844400
3073.024150	14.262600
3069.463550	14.490900
3076.144233	14.092900
3071.324483	14.446000
3076.880017	14.159300
3080.608433	13.982200
3075.826133	14.274100
3081.285933	13.961200
3079.129433	14.106700
3070.844933	14.712400
3082.161300	14.150700
3070.847000	14.869800
3075.880117	14.603900
3085.226200	14.073600
3085.189500	14.059500
3073.616750	14.793900
3084.069717	14.336000
3083.480600	14.389800
3080.902517	14.563400
3082.622067	14.485700
3087.407633	14.386600
3083.886333	14.616400
3081.470867	14.765000
3085.374700	14.538900
3085.689750	14.713500
3087.429267	14.622800
3087.192683	14.704000
3096.105050	14.207100
3105.627300	13.730400
3090.062233	14.659000
3091.810033	14.583400
3094.182483	14.460100
3099.523633	14.275900
3094.038050	14.660700
3098.817700	14.383800
3094.067483	14.690200
3096.512017	14.622800
3104.839767	14.214200
3104.373433	14.257900
3102.563967	14.396900
3100.002550	14.551200
3101.978200	14.442000
3096.792067	14.747900
3097.414283	14.884300
3099.993133	14.777200
3094.565600	15.201600
3094.405083	15.232000
3099.980150	14.923800
3104.131667	14.698100
3108.119533	14.539600
3106.220817	14.657600
3105.148617	14.752100
3100.397817	15.039200
3108.395750	14.682900
3104.628417	14.984000
3108.883017	14.818700
3116.926683	14.351200
3111.747700	14.668200
3113.121733	14.603200
3109.332050	14.893800
3116.070850	14.581200
3114.453767	14.727800
3118.023850	14.556000
3112.209800	14.916600
3117.436050	14.632500
3114.758533	14.827300
3123.829833	14.435200
3125.817417	14.336000
3120.341183	14.751100
3120.679233	14.718100
3122.520033	14.620000
3118.945650	14.856300
3117.510683	15.108100
3121.900267	14.869100
3125.507050	14.695500
3124.118050	14.778600
3129.998517	14.479400
3136.673317	14.122700
3134.209367	14.309600
3133.586600	14.371500
3128.674500	14.674500
3131.388233	14.540500
3131.404617	14.555600
3127.338100	14.794800
3127.740100	14.898300
3113.506750	15.942600
3124.826500	15.327000
3128.435967	15.114500
3133.391150	14.887500
3132.529083	15.064900
3145.154600	14.328300
3135.699217	14.911700
3141.707567	14.597300
3141.468517	14.744000
3148.465533	14.360500
3144.032633	14.662300
3146.001100	14.572800
3150.621533	14.296000
3145.211850	14.633400
3144.690383	14.725600
3140.938533	14.985700
3135.565817	15.428300
3140.927717	15.125000
3141.943850	15.088500
3145.768733	14.898100
3153.136033	14.639500
3155.052150	14.550600
3146.591767	15.054800
3151.028233	14.823700
3149.810700	14.989200
3159.720500	14.489400
3151.324267	15.115100
3156.019700	14.826300
3165.798433	14.286400
3160.372133	14.626900
3155.176900	15.008100
3154.545067	15.170000
3164.821417	14.591300
3160.944883	14.846800
3162.661200	14.757600
3168.856150	14.379000
3160.465067	14.933300
3159.710550	15.118200
3162.885850	14.948700
3163.017767	14.993000
3163.570150	14.968200
3160.580317	15.227000
3161.719167	15.199700
3169.922500	14.784600
3160.629767	15.370100
3156.732750	15.649500
3169.339717	14.897000
3161.124783	15.545200
3168.004867	15.171500
3175.114033	14.772400
3179.121400	14.549400
3177.141800	14.817900
3181.657250	14.588100
3177.941800	14.897400
3181.613667	14.687600
3174.800483	15.146500
3184.456367	14.559800
3177.330967	15.083600
3181.642683	14.883700
3193.975483	14.202400
3187.003667	14.614400
3185.570783	14.711200
3180.373017	15.028400
3181.454900	14.998200
3172.967467	15.582200
3184.813767	14.904500
3184.785133	14.963800
3189.098850	14.734800
3185.556767	14.965100
3195.392867	14.406500
3185.532850	15.180300
3187.312400	15.113100
3186.876433	15.157000
3184.417550	15.325500
3187.984450	15.263700
3181.051400	15.749100
3184.169283	15.646600
3187.905900	15.436800
3187.840733	15.471700
3192.647717	15.186800
3193.225150	15.261900
3200.245417	14.920700
3191.897300	15.475200
3190.648083	15.573400
3185.930800	15.880800
3188.079467	15.751700
3201.654300	15.046500
3208.966250	14.709900
3205.152533	14.927800
3206.027733	14.863300
3202.092317	15.166100
3207.972900	14.923800
3202.372417	15.298700
3205.874167	15.134300
3201.916167	15.386300
3203.401183	15.321400
3211.405600	14.850000
3205.588650	15.369300
3206.457083	15.376600
3213.835467	15.023300
3217.002250	14.816100
3213.479267	15.023000
3225.577767	14.319800
3213.176917	15.227000
3212.801550	15.244200
3215.382950	15.092400
3218.320800	14.946600
3205.794483	15.838900
3214.253250	15.426300
3229.154567	14.608100
3223.765483	14.950300
3225.735617	14.880800
3218.385467	15.320300
3218.549550	15.331200
3212.917783	15.748600
3214.371133	15.685900
3228.790200	14.872500
3213.487883	15.809500
3220.100950	15.466800
3226.313050	15.137700
3227.874200	15.169800
3228.431467	15.164300
3235.545767	14.735900
3235.057783	14.792500
3227.793317	15.353900
3234.700433	14.975200
3231.860883	15.231100
3234.076133	15.126400
3235.831933	15.024700
3226.628517	15.600200
3225.879117	15.774800
3230.443600	15.519300
3233.196333	15.371500
3237.789367	15.104600
3237.856283	15.166900
3227.334583	15.855400
3239.839133	15.173800
3227.683733	15.914800
3237.111783	15.390400
3230.948850	15.792000
3230.300767	15.985700
3232.490233	15.916600
3242.041200	15.445500
3236.889583	15.754300
3244.279133	15.382600
3237.518017	15.773900
3235.817133	15.994000
3249.658300	15.306000
3250.503333	15.260200
3252.545583	15.149500
3247.266100	15.490800
3243.535900	15.708300
3244.965100	15.664800
3245.724983	15.699400
3244.305517	15.808700
3257.810383	15.027700
3257.318333	15.048100
3253.166000	15.444000
3255.285500	15.368700
3246.717883	15.929800
3255.843200	15.403200
3259.706700	15.299700
3257.807783	15.439000
3255.965867	15.656000
3254.299933	15.815800
3267.577867	15.094100
3258.463583	15.659200
3257.004800	15.770700
3258.674450	15.682200
3265.396233	15.391600
3262.436350	15.667800
3261.574417	15.745100
3260.402800	15.829800
3255.376017	16.181000
3263.001167	15.865400
3268.325600	15.581400
3267.530250	15.687300
3268.467267	15.638900
3275.977550	15.219000
3270.626883	15.534700
3261.977633	16.206700
3265.768533	16.068400
3280.055050	15.297900
3270.621467	15.882200
3277.304733	15.498700
3278.600850	15.430500
3285.596600	15.172800
3282.040167	15.425600
3284.120383	15.330100
3278.354967	15.656900
3282.561083	15.539200
3275.294483	16.047400
3281.953383	15.686800
3285.831300	15.510000
3289.815517	15.282200
3284.177117	15.620600
3287.091133	15.458500
3283.729017	15.719300
3274.725117	16.282100
3279.213567	16.049600
3282.675017	15.872600
3291.393350	15.517200
3293.140050	15.435000
3295.415750	15.385200
3291.601800	15.632400
3296.263167	15.419300
3297.494100	15.335400
3289.083550	15.867300
3293.708133	15.603700
3288.597183	16.101100
3292.284833	15.916900
3290.218150	16.064400
3291.666367	15.996200
3304.299750	15.416700
3297.386967	15.844100
3289.204617	16.359200
3294.175250	16.092000
3302.046483	15.786400
3306.322867	15.533600
3301.025717	15.914300
3301.700000	15.916500
3304.423100	15.784500
3309.317383	15.542500
3300.630483	16.100500
3296.448533	16.358800
3312.885433	15.414700
3310.513683	15.620200
3314.265000	15.436500
3312.701733	15.546700
3316.950050	15.293400
3301.233150	16.313400
3300.484050	16.376700
3305.642633	16.147300
3308.269133	16.028500
3314.665617	15.680000
3310.015433	15.963400
3309.826350	16.113600
3322.175100	15.436500
3314.891967	15.928100
3320.329683	15.612700
3318.408233	15.736000
3323.016717	15.465800
3319.911367	15.833600
3326.360283	15.472300
3316.315133	16.122100
3317.757983	16.033900
3315.126983	16.288600
3322.476817	15.972200
3328.128517	15.695300
3321.105867	16.143800
3317.828267	16.363400
3320.168550	16.254300
3327.542500	15.863400
3317.904150	16.551000
3322.003300	16.349400
3323.188933	16.336300
3321.423950	16.445700
3330.665600	15.923400
3336.749233	15.594100
3332.959150	15.992700
3335.326183	15.873400
3340.397700	15.587100
3333.801300	15.946200
3346.074550	15.378000
3334.033267	16.143800
3341.436917	15.743600
3339.429183	15.882100
3326.802617	16.657100
3336.114750	16.127400
3336.886133	16.102600
3342.981300	15.766800
3344.562100	15.779700
3347.765950	15.704400
3339.494900	16.227000
3348.906817	15.700700
3344.041533	16.063900
3350.105667	15.832100
3350.584133	15.801100
3353.417283	15.636100
3349.728000	15.873000
3355.260817	15.669200
3356.328800	15.627600
3353.390550	15.876900
3344.871067	16.401200
3355.811000	15.750300
3357.276500	15.670200
3347.643200	16.322100
3348.685150	16.313400
3352.697383	16.203400
3350.430250	16.312800
3343.710767	16.752800
3347.119850	16.606500
3368.786433	15.486400
3352.055133	16.514200
3356.056400	16.308300
3358.217050	16.194900
3367.658967	15.764000
3357.024033	16.469500
3351.888300	16.877400
3367.532150	15.977700
3365.926433	16.101100
3368.454617	15.936800
3372.893233	15.719800
3365.456250	16.292400
3369.145817	16.109000
3368.092833	16.182100
3368.355183	16.177000
3371.753683	15.966100
3372.543633	15.949000
3375.181217	15.941900
3373.108800	16.099500
3377.795450	15.843300
3374.340917	16.059200
3375.492350	16.106700
3371.689117	16.388600
3384.085767	15.734000
3379.467083	15.984400
3372.369367	16.433300
3371.857233	16.480000
3371.103100	16.604700
3378.906867	16.203800
3370.232583	16.751500
3380.037050	16.216500
3380.688450	16.188600
3379.932067	16.251500
3385.059683	16.026700
3391.134433	15.777100
3384.457983	16.174600
3379.402817	16.496300
3381.907567	16.451300
3392.725217	15.898700
3382.090167	16.591700
3395.821933	15.810400
3384.961817	16.475000
3384.822817	16.524800
3383.895217	16.648100
3395.360700	16.072500
3394.866433	16.128100
3389.592900	16.483500
3381.622583	16.969600
3384.884800	16.844700
3396.652333	16.171900
3400.612033	15.991600
3396.199833	16.291300
3393.532833	16.465300
3400.132217	16.048700
3396.186417	16.440500
3399.025617	16.341800
3399.086100	16.408800
3396.010767	16.625600
3396.111300	16.704300
3402.375300	16.347300
3405.257350	16.290000
3400.884917	16.643300
3396.619783	16.936000
3399.833550	16.816200
3397.367967	16.969700
3401.615717	16.750100
3403.621017	16.682900
3414.049567	16.116500
3409.923867	16.367900
3406.846417	16.574600
3405.801550	16.707900
3406.754067	16.723100
3410.055983	16.570000
3409.111767	16.717400
3406.961250	16.868400
3408.880083	16.776700
3422.970583	15.967000
3415.966283	16.535500
3417.548150	16.487700
3409.259783	17.083300
3417.654150	16.590900
3418.803183	16.567900
3414.598283	16.837900
3418.935050	16.744500
3426.338950	16.341000
3426.541733	16.337200
3425.017483	16.417000
3421.855283	16.743700
3426.111517	16.571900
3420.637967	16.971800
3432.222617	16.262600
3418.271517	17.155400
3421.119867	16.975700
3418.829267	17.152400
3429.714067	16.582400
3429.568283	16.618900
3430.563300	16.606800
3423.899783	17.052700
3422.519450	17.163300
3427.200217	16.962800
3438.727367	16.438400
3431.053583	16.904800
3430.984000	16.918500
3433.738317	16.795100
3440.092433	16.475500
3436.017483	16.751500
3437.987567	16.664300
3436.097333	16.804000
3441.666667	16.475300
3435.253667	16.883900
3444.782283	16.418500
3442.139350	16.606500
3444.285000	16.562700
3443.376883	16.648300
3448.571533	16.360600
3446.674150	16.476000
3441.636800	16.871100
3447.719967	16.569500
3456.084000	16.104600
3457.491317	16.013900
3452.687567	16.357400
3450.570150	16.514400
3451.666633	16.517500
3457.308367	16.222400
3452.309000	16.528200
3458.358917	16.166000
3453.351317	16.553000
3455.444417	16.526000
3453.855317	16.652600
3455.343150	16.581600
3452.913650	16.774200
3459.369667	16.537100
3456.601783	16.747600
3446.456617	17.447900
3454.135667	17.012000
3456.904717	16.865900
3457.438033	16.850800
3468.317983	16.354600
3469.961200	16.307400
3457.988783	17.091100
3460.719783	16.956700
3464.406650	16.767900
3466.161900	16.676700
3462.326850	17.088900
3468.340100	16.757100
3466.634400	16.885800
3467.750067	16.830800
3476.364300	16.435200
3469.159650	16.923900
3478.856250	16.431600
3472.474450	16.801500
3469.443483	17.034700
3472.777050	16.807200
3471.739233	16.894900
3472.387533	16.921000
3472.189433	16.976200
3470.064650	17.156400
3474.831750	16.890000
3483.672817	16.394900
3480.344333	16.645900
3478.762533	16.880500
3480.414717	16.815200
3476.177917	17.125700
3478.064233	17.040700
3476.833433	17.139100
3476.037933	17.200000
3477.352867	17.315900
3482.948967	16.995800
3481.533767	17.111300
3484.477117	16.916900
3478.707917	17.339000
3477.818383	17.434900
3476.062450	17.573700
3491.971033	16.637500
3488.172983	16.945600
3484.036167	17.198900
3475.349217	17.782400
3480.433667	17.545400
3486.947400	17.234100
3488.290233	17.194300
3493.109683	16.935100
3499.032983	16.609900
3493.661000	17.040000
3497.170567	16.929200
3493.827817	17.154200
3498.396950	16.908900
3499.211950	16.908900
3498.550267	17.103500
3488.517817	17.741600
3497.887600	17.272500
3503.096683	16.972600
3499.264933	17.219200
3502.506783	17.025100
3509.365300	16.781100
3516.006567	16.420700
3505.935233	17.068000
3509.990067	16.851200
3509.208800	16.878600
3510.440100	16.809900
3518.382617	16.456400
3507.825933	17.150800
3511.858667	16.901000
3508.388917	17.144900
3506.917817	17.222900
3512.657083	16.901500
3505.029867	17.569700
3509.347000	17.346000
3512.660000	17.171100
3510.488633	17.326000
3511.967517	17.280800
3511.512583	17.484400
3512.536367	17.438600
3511.717983	17.516500
3520.939333	16.988800
3520.116267	17.113100
3519.686850	17.147700
3516.079300	17.400900
3518.230267	17.308100
3517.397017	17.399000
3517.334983	17.418100
3526.895783	17.002000
3525.154300	17.154300
3529.750550	16.919400
3528.728483	17.011900
3515.626017	17.805800
3521.884583	17.452900
3526.701333	17.319700
3522.613750	17.640300
3528.809683	17.370400
3527.848583	17.434600
3524.068967	17.664200
3525.006233	17.619700
3521.791683	17.925100
3537.862417	17.057000
3538.535983	17.047900
3533.961250	17.386200
3530.151200	17.637900
3531.314650	17.591400
3543.163183	16.914100
3541.749483	17.116900
3546.435117	16.860500
3536.892017	17.440400
3535.746500	17.558400
3537.928250	17.583900
3544.357217	17.226800
3547.760333	17.080000
3547.738117	17.093900
3538.994700	17.623500
3543.001133	17.420500
3534.838450	17.896800
3538.461233	17.733400
3545.734400	17.557500
3552.762717	17.155400
3547.942250	17.477400
3543.519050	17.747400
3548.406350	17.608200
3549.966483	17.533000
3549.554183	17.593300
3545.259683	17.840500
3545.237933	17.965900
3550.860950	17.725800
3549.518700	17.847000
3551.154800	17.809200
3556.421200	17.503800
3555.795800	17.561700
3553.719133	17.757700
3555.253683	17.780800
3557.325317	17.705300
3562.417050	17.424600
3563.064600	17.413800
3563.596717	17.389700
3565.063750	17.323200
3569.806700	17.202600
3568.467133	17.292100
3569.315067	17.247200
3572.491167	17.064800
3574.892017	17.062700
3566.647050	17.615400
3571.858433	17.382400
3567.704383	17.620600
3574.639450	17.242500
3566.609367	17.741300
3574.105400	17.405400
3572.324433	17.522200
3563.105367	18.080300
3564.251317	18.029300
3574.400250	17.497800
3567.564550	17.952600
3573.015817	17.671400
3570.150483	17.900200
3588.507617	16.818200
3581.341967	17.265500
3575.295150	17.659500
3578.976867	17.619800
3578.856483	17.653000
3588.674733	17.098600
3581.931000	17.511600
3577.527317	17.886800
3583.891933	17.531500
3576.509767	18.056900
3579.861567	17.880200
3580.205017	17.945900
3587.619817	17.520800
3583.533467	17.784800
3589.047100	17.453700
3583.361600	17.863500
3585.136167	17.775800
3582.535250	17.949300
3591.392417	17.420000
3591.052467	17.611700
3596.093983	17.342200
3599.770100	17.169000
3596.273267	17.385200
3594.801150	17.526900
3590.565017	17.918000
3592.638150	17.863500
3603.203667	17.285300
3599.226767	17.556800
3594.283467	17.949800
3594.725467	17.939900
3597.892433	17.750200
3596.818750	17.817000
3608.395217	17.155400
3599.521100	17.698200
3600.024033	17.899600
3605.308617	17.617700
3611.959183	17.228800
3603.264633	17.764600
3606.904267	17.611700
3604.656417	17.735600
3602.278467	17.904800
3606.633467	17.664200
3610.458133	17.524300
3608.828367	17.649800
3603.362683	18.010300
3617.557300	17.192100
3603.418750	18.117300
3618.010283	17.360500
3614.120400	17.637900
3618.059750	17.453700
3613.073633	17.771500
3610.530283	17.961100
3615.195367	17.723300
3615.937500	17.854800
3621.648983	17.560000
3632.172900	17.000100
3629.685500	17.156100
3612.102583	18.191800
3617.000283	17.897200
3618.016433	18.005500
3627.052183	17.508700
3624.572283	17.735500
3621.884267	17.897300
3610.697783	18.595900
3625.014317	17.785400
3626.278950	17.800500
3630.928317	17.540000
3635.076700	17.304000
3624.706533	17.948500
3628.888833	17.797000
3627.890600	17.960100
3623.226483	18.356500
3622.520133	18.403000
3627.909950	18.125700
3634.533700	17.692800
3629.222400	18.078900
3640.157850	17.571600
3632.815667	18.042500
3631.993250	18.125700
3634.444533	18.016300
3634.260950	18.091800
3644.870267	17.569700
3637.774350	18.013200
3640.030333	17.929000
3631.290117	18.485900
3639.172567	18.028700
3636.512450	18.250500
3640.471350	18.029700
3639.325667	18.146000
3637.187400	18.299700
3636.794550	18.380100
3636.586717	18.393200
3636.455417	18.514700
3633.175650	18.787200
3644.841300	18.186000
3644.997167	18.231200
3651.624200	17.848500
3660.491867	17.318600
3650.652733	18.073300
3659.057983	17.568400
3652.190883	17.999800
3655.870517	17.795900
3655.525917	17.947400
3650.916783	18.308200
3653.418433	18.187000
3647.841183	18.557200
3644.552533	18.774100
3653.473667	18.268100
3647.366367	18.676400
3660.937067	18.012800
3653.507683	18.474100
3660.928867	18.135200
3654.085450	18.567000
3665.860850	17.864100
3660.349383	18.205900
3666.439017	17.912900
3659.010500	18.362400
3665.353467	18.009200
3664.649800	18.054000
3673.404667	17.703800
3670.865750	17.885100
3671.135917	17.928500
3673.870467	17.774900
3665.487217	18.301400
3666.533467	18.242300
3668.115017	18.281000
3671.912300	18.114000
3672.785167	18.098600
3670.312033	18.279700
3670.934750	18.260700
3673.472083	18.150400
3668.836817	18.469100
3673.095933	18.275200
3671.847567	18.371600
3672.542800	18.333300
3669.622817	18.556700
3677.020850	18.289800
3683.821600	17.922900
3683.614633	17.997700
3688.915700	17.696400
3682.187000	18.114600
3673.060667	18.683600
3679.520517	18.503300
3688.409533	17.978800
3686.097717	18.140900
3693.421800	17.707500
3682.832867	18.484100
3698.183633	17.619700
3696.727850	17.779500
3686.924217	18.372500
3686.441950	18.440400
3681.948900	18.717000
3686.979667	18.485000
3688.741650	18.421200
3698.682267	17.884400
3695.870083	18.060100
3695.335700	18.136200
3697.095717	18.021500
3695.008483	18.239500
3690.190933	18.639100
3693.492167	18.509300
3702.010833	18.058600
3699.422983	18.229900
3692.493700	18.677700
3701.246317	18.241100
3693.366883	18.833800
3701.780967	18.346700
3698.443150	18.579600
3697.930333	18.660700
3695.400967	18.915500
3695.708733	18.936700
3706.408567	18.372200
3703.161283	18.601300
3696.572067	19.016000
3699.923550	18.813600
3700.010300	18.952800
3704.756250	18.745200
3718.978567	17.926400
3714.403483	18.193000
3706.833733	18.692200
3711.270383	18.441100
3712.306150	18.430800
3706.453217	18.908600
3709.590683	18.759100
3714.037617	18.560600
3721.357417	18.120500
3721.849217	18.085700
3724.440750	17.944200
3723.763033	18.126700
3727.246117	17.939300
3732.909850	17.566200
3722.122867	18.211700
3722.888017	18.300500
3720.467667	18.488900
3718.749833	18.681700
3715.429617	18.879800
3722.799817	18.480500
3726.892517	18.241100
3735.059400	17.830200
3727.839133	18.293500
3723.685283	18.540100
3725.003500	18.521400
3721.289050	18.896700
3731.838167	18.332600
3722.225783	18.975400
3727.690533	18.667300
3732.364433	18.397600
3724.582567	18.881000
3723.428817	19.024700
3734.088633	18.521200
3736.060300	18.417000
3727.681233	18.996400
3731.964333	18.784000
3723.096067	19.328000
3737.059867	18.544400
3736.550967	18.740900
3738.136400	18.708300
3742.963467	18.487100
3740.289517	18.689900
3741.766000	18.604800
3743.713300	18.514500
3752.899450	18.176100
3752.167233	18.202600
3745.325233	18.622900
3747.509933	18.510100
3748.644583	18.511600
3746.057817	18.682400
3749.719950	18.471900
3745.384350	18.798300
3754.881133	18.235000
3754.588067	18.284300
3752.025000	18.508200
3757.466267	18.269300
3757.928083	18.299200
3753.206633	18.614200
3750.747050	18.788100
3755.203850	18.517800
3750.744633	18.847300
3763.992950	18.178200
3761.305517	18.336200
3756.433800	18.649200
3755.242717	18.734900
3757.541550	18.754500
3761.380467	18.537200
3763.642967	18.478400
3764.055083	18.459400
3765.860800	18.363000
3766.905117	18.298400
3763.269767	18.600200
3771.049067	18.181700
3767.695483	18.468400
3766.024283	18.560800
3765.054717	18.654800
3764.112100	18.732300
3775.574867	18.283100
3774.090883	18.355300
3768.532200	18.713100
3765.792800	18.914400
3767.686917	18.891500
3772.553983	18.751000
3772.432833	18.826600
3764.210933	19.399900
3770.845450	19.028700
3773.329383	18.902800
3774.675900	18.878400
3775.687400	18.978000
3780.336217	18.714800
3774.204117	19.206200
3775.442367	19.140200
3778.664467	18.991700
3776.582333	19.124500
3779.604450	19.086300
3772.521150	19.601700
3785.772967	18.849500
3781.547333	19.110100
3780.283717	19.214000
3784.633350	18.977100
3780.883067	19.316300
3786.412483	19.039000
3782.731317	19.257200
3786.110450	19.090800
3789.107900	19.015500
3787.208717	19.238300
3780.421883	19.683100
3785.880800	19.432500
3792.574867	19.063100
3789.623617	19.234400
3797.142233	18.821800
3802.627767	18.643700
3794.965233	19.132000
3796.096533	19.146100
3791.916100	19.398300
3797.325533	19.099300
3791.078617	19.478900
3792.636717	19.478900
3793.288250	19.440000
3798.544233	19.173400
3797.814150	19.224900
3799.136450	19.285200
3801.082417	19.213400
3804.379800	19.101300
3807.681417	18.909500
3791.599883	19.888000
3799.300617	19.429100
3801.842450	19.399800
3806.543500	19.185900
3806.150367	19.280600
3805.491517	19.369400
3806.608783	19.329100
3808.739233	19.223500
3809.664133	19.279600
3807.849100	19.382400
3810.607250	19.249800
3807.733733	19.423000
3814.488717	19.061900
3810.595267	19.387100
3805.553400	19.735500
3808.773817	19.610000
3811.230000	19.487700
3818.813750	19.073700
3822.686833	18.852700
3822.251600	19.014900
3817.707417	19.323500
3820.424967	19.246400
3816.074867	19.548200
3821.183450	19.282200
3826.387517	18.998000
3829.889683	18.956500
3826.850267	19.164200
3819.249983	19.625800
3826.101667	19.216700
3829.395100	19.127100
3834.188250	18.929400
3833.855633	19.017400
3831.969333	19.117900
3825.590083	19.511200
3827.663333	19.414000
3834.351200	19.057800
3827.496950	19.490100
3839.041600	18.854400
3831.971667	19.338800
3837.009883	19.051300
3831.393983	19.402600
3832.872167	19.367900
3839.356183	19.168000
3838.772150	19.231200
3843.428383	18.986800
3838.030150	19.337700
3847.376533	18.903700
3839.591117	19.438100
3832.484717	19.937900
3834.588533	19.788100
3834.587000	19.821600
3839.930283	19.526800
3842.973117	19.487300
3839.928583	19.746100
3838.802083	19.890700
3843.939550	19.589700
3845.013833	19.568500
3845.630250	19.561500
