#Y dist(nm)	Y force(pN)
0.000000	0.248900
-8.385700	0.708800
-17.920383	1.122100
-8.986900	0.537500
-11.421667	0.671700
-8.198683	0.450100
-13.539600	0.749000
-16.484783	0.923200
-6.435583	0.317200
-17.169967	0.955200
-15.880617	0.666600
-13.814033	0.471700
-14.748650	0.532400
-18.876300	0.759200
-21.154833	0.910900
-24.825083	1.136200
-17.810150	0.702800
-22.260217	0.955200
-24.887433	1.018300
-30.623667	1.167600
-24.475417	0.825900
-21.853683	0.669100
-19.367883	0.509800
-19.040267	0.420900
-29.270400	1.021100
-29.100383	0.999400
-22.301800	0.604400
-25.280783	0.737200
-26.180467	0.767400
-21.928733	0.443500
-17.528917	0.162900
-23.327400	0.465200
-30.720883	0.862000
-37.857267	1.173000
-32.032917	0.764100
-34.273000	0.867200
-23.322317	0.207300
-24.376700	0.250700
-26.021100	0.302600
-31.008150	0.558500
-31.113000	0.567800
-25.780567	0.236100
-27.635033	0.347800
-35.650683	0.548500
-34.945267	0.393300
-36.796950	0.505700
-42.091767	0.796200
-41.089817	0.735900
-40.495333	0.680800
-38.792700	0.571700
-29.819200	0.017300
-39.213133	0.493600
-44.626917	0.654000
-47.445067	0.817200
-40.153583	0.355600
-45.682867	0.674400
-44.675483	0.614200
-45.829567	0.645900
-52.797200	0.842600
-49.504767	0.651000
-42.992467	0.229200
-51.492367	0.713700
-50.974700	0.573500
-44.156850	0.106400
-49.571933	0.408100
-54.510333	0.682900
-51.161217	0.464700
-50.865633	0.437800
-59.809933	0.871900
-55.108600	0.529400
-52.658800	0.356300
-57.062617	0.600600
-50.608417	0.222300
-50.900417	0.212700
-61.594833	0.831400
-59.694167	0.707700
-58.355467	0.486000
-59.003067	0.403200
-72.944100	1.215800
-70.582150	1.096400
-65.481667	0.765600
-59.066217	0.392700
-66.172667	0.799500
-57.809150	0.303200
-69.054417	0.931500
-74.092967	0.971700
-72.404567	0.845400
-71.661017	0.817200
-72.475850	0.835400
-77.805200	1.049600
-76.719250	0.992300
-71.129467	0.669000
-74.214633	0.834400
-69.154533	0.539200
-61.216267	0.010800
-73.997883	0.606700
-71.322283	0.408100
-72.892483	0.468400
-77.432050	0.705500
-60.490500	-0.315700
-76.406917	0.646200
-73.121150	0.440600
-73.707633	0.449500
-78.402850	0.659900
-78.257083	0.590500
-79.136667	0.603000
-81.474633	0.713500
-82.092017	0.742200
-79.176483	0.538300
-78.541233	0.403300
-80.270017	0.399600
-86.177567	0.721500
-87.980933	0.817900
-88.442317	0.829200
-89.837533	0.904600
-85.493433	0.646600
-81.167483	0.370900
-83.908867	0.492000
-88.906833	0.546400
-92.502600	0.726500
-87.953400	0.434300
-89.302867	0.507000
-85.619617	0.238800
-88.216533	0.393100
-89.667983	0.468400
-88.094183	0.358900
-98.271133	0.694300
-102.888350	0.965600
-98.740517	0.716100
-100.708250	0.803600
-107.702167	1.106700
-107.431817	1.076400
-102.076283	0.754300
-107.730867	1.128600
-104.564717	0.949200
-94.896367	0.381000
-93.916750	0.211400
-100.263950	0.503900
-94.958400	0.150200
-95.623150	0.182900
-100.072667	0.424500
-104.360233	0.672400
-97.792950	0.263900
-103.103467	0.558600
-102.557850	0.467300
-108.873833	0.631000
-99.852033	0.051400
-104.950883	0.330700
-109.804450	0.617900
-106.846650	0.421400
-112.951683	0.774400
-110.989533	0.660400
-107.793200	0.479900
-109.411917	0.325500
-116.562700	0.692000
-117.403150	0.737900
-113.565500	0.507800
-104.428700	-0.043000
-110.985317	0.309600
-116.146100	0.586400
-106.129367	0.000000
-117.028083	0.454600
-117.491100	0.369200
-120.556700	0.537800
-132.457850	1.232600
-121.034850	0.575900
-124.268950	0.758900
-117.786750	0.352700
-119.444917	0.453000
-118.722200	0.388700
-118.073583	0.289600
-125.989783	0.742300
-117.512917	0.211500
-122.353800	0.485300
-121.259617	0.375600
-123.178500	0.494300
-127.359850	0.738500
-127.659250	0.739400
-126.174983	0.408700
-130.389017	0.617100
-131.790167	0.644100
-131.917500	0.630500
-133.292000	0.693200
-125.322967	0.204300
-123.287067	0.046200
-133.589600	0.677300
-124.081050	0.074300
-131.201933	0.489400
-132.753200	0.404600
-139.394233	0.705100
-136.862267	0.535500
-134.979233	0.397000
-129.562983	0.064300
-135.725383	0.412300
-136.596733	0.445600
-135.423817	0.368100
-139.158150	0.590600
-139.113450	0.596900
-141.738367	0.652200
-132.477733	-0.111500
-137.962950	0.200000
-141.671900	0.383600
-147.792300	0.747800
-145.235350	0.577700
-146.288983	0.629800
-142.138733	0.224800
-148.138050	0.535400
-139.741250	0.021200
-137.639917	-0.091200
-152.154800	0.755900
-142.110583	0.148300
-151.498733	0.668200
-142.541983	0.146500
-141.004067	0.041700
-140.713700	-0.011500
-150.077100	0.335600
-149.888467	0.222000
-154.684300	0.490100
-161.483100	0.888500
-153.623367	0.407400
-153.019883	0.385900
-150.783117	0.236100
-147.746417	0.017100
-156.239067	0.499500
-156.701867	0.541800
-149.767133	0.024700
-159.213333	0.373600
-166.652350	0.797000
-161.076500	0.489500
-160.604183	0.405700
-163.497067	0.479700
-157.699267	0.130500
-165.037300	0.583700
-167.011383	0.691300
-162.790517	0.425100
-171.701983	0.934600
-167.004050	0.659900
-167.674983	0.697300
-161.346217	0.306000
-165.333333	0.532000
-164.891917	0.189900
-158.508150	-0.205900
-167.250900	0.289400
-165.110650	0.153500
-166.182200	0.169100
-165.546217	0.106800
-180.547150	0.953600
-169.704367	0.319200
-166.692433	0.150400
-162.458000	-0.140500
-167.887417	0.067200
-167.394833	-0.069200
-175.321500	0.409700
-169.957200	0.084200
-173.697967	0.300000
-171.113883	0.126100
-172.004483	0.142600
-171.308983	-0.019400
-179.750433	0.467500
-178.138983	0.366100
-180.302867	0.459000
-169.310300	-0.360100
-176.743550	0.038000
-180.519050	0.249500
-188.888483	0.749800
-166.767783	-0.578000
-181.374967	0.258000
-176.093083	-0.059000
-167.197217	-0.575700
-179.864583	-0.039500
-184.816533	0.154000
-190.303817	0.436800
-189.249333	0.353200
-183.581283	0.013000
-188.462450	0.283400
-189.160667	0.312600
-193.907950	0.630200
-190.520650	0.284300
-200.468033	0.729400
-189.117833	0.054100
-202.354617	0.838800
-196.065650	0.468800
-196.755533	0.518200
-192.573950	0.265700
-192.814000	0.279500
-199.895383	0.581200
-204.886033	0.714400
-198.115383	0.312100
-199.151650	0.366800
-196.107950	0.158600
-202.169950	0.391400
-197.473683	0.099400
-200.284400	0.250700
-202.833450	0.392000
-204.558017	0.482100
-199.255417	0.159300
-201.618750	0.249500
-209.078717	0.674400
-208.653333	0.632500
-200.852450	0.140600
-198.465650	-0.011500
-202.232300	0.204200
-202.268783	0.187000
-208.768150	0.559400
-215.225200	0.822500
-204.203117	0.158400
-203.498467	0.085800
-199.943217	-0.149700
-205.489633	0.070000
-209.676767	0.252000
-215.208067	0.534000
-211.825967	0.329100
-206.579267	0.010200
-208.795733	0.134800
-215.166400	0.435500
-216.039350	0.381200
-225.645550	0.945500
-216.275767	0.372000
-207.352350	-0.174100
-219.438150	0.516200
-212.112100	0.081500
-206.882267	-0.259800
-220.229617	0.479100
-212.939150	-0.195700
-214.909300	-0.096100
-215.313217	-0.105300
-228.632700	0.667400
-221.643650	0.249200
-229.567117	0.720000
-226.729767	0.546600
-226.249417	0.501000
-229.266783	0.420100
-222.713717	0.031200
-231.690400	0.551000
-234.006183	0.668800
-226.888450	0.150800
-229.721700	0.278900
-237.124633	0.714400
-229.463933	0.224500
-231.798750	0.351800
-230.386433	0.262300
-232.408817	0.275700
-239.817133	0.648700
-237.287400	0.509000
-231.037150	0.119300
-228.971467	-0.024600
-234.818800	0.306500
-233.681900	0.241700
-246.509117	1.000500
-237.461767	0.441900
-247.510167	0.813900
-240.124883	0.362200
-243.377417	0.555600
-245.565500	0.679100
-250.294550	0.962000
-241.768883	0.442600
-246.000083	0.681400
-234.969033	0.040900
-231.545183	-0.296000
-243.629100	0.389900
-242.995400	0.357500
-249.818333	0.764800
-244.052917	0.278700
-240.672650	0.030500
-244.103383	0.192100
-244.489033	0.214000
-250.463533	0.540700
-246.659850	0.296900
-242.528800	0.003500
-247.922167	0.273600
-247.923383	0.263200
-253.354983	0.571600
-243.643133	-0.013400
-242.707333	-0.068600
-247.731517	0.204900
-242.488717	-0.116400
-250.374750	0.273200
-247.074250	-0.007300
-251.959500	0.262700
-254.073850	0.345800
-257.785933	0.540700
-245.883917	-0.173700
-247.147350	-0.119200
-253.463967	0.232500
-249.855200	-0.011500
-253.936383	-0.041900
-260.824250	0.349400
-258.266033	0.181000
-266.253750	0.658400
-268.142583	0.663100
-259.789150	0.130100
-263.181733	0.355600
-259.339150	0.094700
-264.261950	0.360500
-255.914517	-0.145800
-260.784183	0.034000
-263.593817	0.112500
-272.323150	0.608900
-263.483417	0.063900
-256.490467	-0.350700
-263.990317	0.070800
-259.955600	-0.178600
-267.650450	0.261800
-272.273917	0.406200
-272.074617	0.258900
-274.058217	0.360900
-266.757400	-0.109600
-266.766933	-0.115700
-268.259333	-0.036200
-267.411450	-0.114700
-268.783533	-0.048200
-271.757217	0.089400
-275.367150	0.070700
-272.916733	-0.091100
-278.733517	0.264300
-279.198267	0.289200
-275.791767	0.176700
-278.287250	0.345200
-274.290533	0.107800
-270.176317	-0.168900
-273.843883	0.018700
-275.947683	0.128800
-273.729150	0.140600
-273.387717	0.138300
-278.894833	0.429100
-275.923633	0.255100
-280.804533	0.597700
-268.610717	-0.128100
-264.126283	-0.412700
-274.711100	0.245900
-271.561100	0.070700
-264.743600	-0.365500
-268.119700	-0.032500
-257.887600	-0.644800
-272.389533	0.212500
-269.050233	0.022600
-261.169617	-0.408600
-271.623733	0.263200
-267.934017	0.047700
-266.340050	-0.055000
-269.342317	0.108300
-263.913917	-0.218700
-267.039450	-0.053500
-268.126967	0.171600
-265.635600	0.002900
-262.846467	-0.158400
-265.531617	-0.022800
-271.561950	0.387800
-267.344667	0.152400
-269.767717	0.290400
-271.387650	0.394400
-268.025400	0.203900
-263.093367	-0.088200
-264.828283	0.062800
-257.765400	-0.343900
-265.387433	0.131200
-261.926333	-0.090500
-261.455867	-0.101400
-266.313733	0.184900
-257.262700	-0.163600
-260.859817	0.034200
-264.810383	0.253000
-260.527567	-0.006300
-260.131283	0.008500
-255.504633	-0.181100
-260.024033	0.100600
-260.420583	0.112300
-256.459433	-0.135500
-258.697617	0.015000
-263.711817	0.335400
-253.878217	-0.114600
-262.466167	0.385200
-265.510733	0.582100
-261.491317	0.353400
-271.422983	0.954700
-265.954667	0.629700
-267.060333	0.712300
-256.251783	0.072400
-255.371600	0.270200
-251.601683	0.018100
-249.510083	-0.098000
-252.445317	0.082200
-241.280867	-0.503100
-251.163183	0.104500
-254.058900	0.261200
-248.079450	-0.117100
-245.739850	-0.265900
-252.375783	0.137500
-255.395583	0.441100
-252.751100	0.324800
-252.145350	0.287900
-243.860183	-0.196400
-251.583433	0.224500
-248.140133	0.026500
-255.996067	0.481500
-246.990400	-0.024100
-249.597117	0.146700
-241.235817	-0.124800
-249.453083	0.375100
-249.931767	0.402300
-244.553367	0.082200
-245.088817	0.111900
-251.176283	0.447100
-256.660867	0.788400
-250.336700	0.407300
-245.467083	0.225100
-249.825450	0.501800
-247.438450	0.355100
-243.950017	0.136800
-245.985350	0.258200
-253.638167	0.719100
-240.466650	-0.047500
-242.949467	0.065700
-236.838517	-0.300900
-240.339517	-0.109800
-238.541967	0.166800
-239.583767	0.237600
-238.218450	0.170300
-233.263517	-0.126900
-235.551733	0.040900
-240.677567	0.339600
-235.765983	0.040900
-239.540767	0.279600
-238.914483	0.247900
-236.205333	0.192100
-234.959033	0.114400
-243.766167	0.626400
-241.641017	0.508200
-245.939950	0.766700
-240.559850	0.456500
-233.251667	0.039900
-239.681333	0.417700
-234.527267	0.342000
-244.274950	0.935600
-232.200217	0.229800
-233.866483	0.319300
-228.809433	0.015100
-236.466517	0.459900
-239.924933	0.671800
-237.210533	0.524200
-234.807117	0.385200
-242.775017	0.846300
-226.510083	0.203500
-232.068533	0.520300
-230.280300	0.404600
-230.556000	0.431000
-226.728467	0.234300
-224.329217	0.111900
-230.885267	0.501900
-229.320167	0.405600
-225.302250	0.211400
-221.307267	0.049500
-214.856667	-0.329700
-223.890583	0.202600
-218.985717	-0.066900
-225.093667	0.373500
-218.744383	0.003400
-222.890350	0.227300
-225.487583	0.386200
-230.019050	0.646700
-225.573817	0.393900
-226.715083	0.614200
-223.251950	0.430400
-212.736183	-0.189800
-226.433500	0.616400
-232.107050	0.953600
-222.314583	0.377200
-221.464067	0.309600
-221.871450	0.334700
-216.674100	0.110300
-216.877233	0.144400
-218.340133	0.247300
-219.637417	0.329700
-221.782833	0.446800
-221.548133	0.452800
-219.457100	0.343700
-226.071117	0.744900
-229.518317	1.047000
-220.252667	0.653100
-222.649283	0.805900
-224.200300	0.903200
-226.686217	1.106100
-216.978783	0.610900
-208.636250	0.107600
-208.034383	0.063700
-210.146800	0.193100
-214.024117	0.407400
-214.477250	0.455300
-209.687983	0.319900
-212.173700	0.497300
-216.382817	0.735900
-207.739833	0.238000
-203.610300	-0.010000
-212.742033	0.524800
-211.314267	0.436800
-212.494300	0.507800
-216.100133	0.978100
-211.980750	0.727400
-202.201350	0.149300
-201.495867	0.118200
-193.018533	-0.334100
-200.915267	0.166800
-206.796083	0.526000
-204.421883	0.385900
-189.868850	-0.467800
-202.160650	0.264200
-204.632917	0.406500
-211.408550	0.811700
-206.364433	0.668200
-202.554700	0.533300
-205.120467	0.705600
-198.845300	0.373100
-205.296383	0.769300
-199.210233	0.398200
-202.450117	0.573300
-199.826167	0.412500
-201.961683	0.543100
-200.248200	0.426500
-195.930133	0.208000
-196.676367	0.479400
-201.717150	0.768500
-195.955217	0.425100
-203.595950	0.893900
-198.881483	0.680200
-198.536367	0.638100
-191.247517	0.202200
-202.504250	0.850400
-188.081450	0.007400
-195.588717	0.427800
-191.860667	0.198300
-205.522200	1.029800
-187.853750	0.233300
-196.950300	0.790700
-196.941367	0.779100
-194.600550	0.643100
-199.334267	1.023300
-193.247250	0.713000
-181.829083	0.040900
-183.842817	0.138900
-185.642717	0.237600
-193.110233	0.680800
-196.661017	0.913500
-183.489567	0.147000
-183.401867	0.143400
-188.175717	0.424800
-180.606633	-0.021200
-179.427250	-0.110800
-184.897883	0.210400
-187.468467	0.360900
-185.768833	0.241900
-181.988033	0.362800
-186.755533	0.691300
-179.195567	0.261900
-177.920733	0.178600
-182.188350	0.415100
-183.322483	0.499900
-180.954967	0.360600
-181.638850	0.379100
-188.354950	0.890600
-184.378167	0.675300
-187.781983	0.897100
-187.878117	0.894600
-180.504550	0.628400
-176.773133	0.396400
-178.632917	0.513000
-179.652133	0.588400
-178.563467	0.532200
-182.940533	0.799900
-177.310933	0.528700
-173.279667	0.375300
-181.178917	0.856200
-178.340517	0.705900
-179.516450	0.774200
-178.975600	0.901700
-174.164700	0.638900
-172.036300	0.509900
-173.303967	0.584700
-168.803250	0.328400
-174.832483	0.688300
-175.521483	0.732100
-177.926217	0.887100
-173.304633	0.832000
-171.641200	0.755000
-164.622700	0.345800
-165.061917	0.386400
-174.893100	0.961400
-169.042917	0.578700
-174.287633	0.916900
-170.534250	0.693800
-169.093317	0.797700
-158.179717	0.198900
-159.377350	0.270200
-158.604317	0.219900
-165.160800	0.586400
-159.129433	0.205900
-163.435467	0.463500
-167.011833	0.670900
-158.450833	0.226000
-156.823700	0.281600
-157.601483	0.348400
-161.208083	0.548200
-162.813733	0.684100
-153.697583	0.216700
-162.885117	0.773700
-158.808250	0.511400
-155.321300	0.293600
-159.305683	0.517900
-159.572067	0.528000
-161.887283	0.819700
-161.673967	0.824400
-160.332100	0.761300
-156.197917	0.519300
-160.445450	0.810200
-163.943233	0.985000
-155.953917	0.515100
-160.382817	0.772800
-152.410767	0.495000
-147.783550	0.272300
-157.568583	0.846700
-160.303167	1.032600
-151.902567	0.534000
-152.149683	0.535600
-152.377067	0.555000
-151.519433	0.527200
-157.149967	0.971100
-157.760150	1.003400
-157.290317	1.010100
-153.933883	0.821500
-158.578450	1.114700
-149.510833	0.627700
-153.849383	0.889900
-148.291650	0.562700
-153.052933	0.862300
-151.844717	0.794400
-150.166233	0.724300
-148.063233	0.760600
-146.932167	0.717600
-142.493467	0.416100
-146.659767	0.692700
-141.760033	0.406600
-143.253983	0.496000
-137.002633	0.110500
-143.487983	0.494800
-140.052433	0.503800
-142.206400	0.684500
-142.259633	0.695800
-142.488550	0.721400
-136.727050	0.394100
-135.884417	0.350400
-142.854817	0.760800
-147.848667	1.066800
-142.311600	0.807800
-139.930167	0.727200
-142.142700	0.856400
-136.505100	0.548000
-141.627400	0.911600
-141.908767	1.022400
-143.572650	1.132700
-141.293933	1.000300
-142.653583	1.128100
-138.509433	0.983200
-137.660250	0.939200
-126.917133	0.312400
-134.507683	0.763000
-135.630050	0.829400
-133.087283	0.709900
-129.774017	0.541500
-133.702100	0.777200
-124.865267	0.177300
-131.162733	0.625600
-126.500117	0.561600
-126.903633	0.691300
-131.026867	0.952200
-128.804833	0.806200
-137.670083	1.352200
-129.842250	0.873500
-134.779933	1.159600
-131.157467	0.937800
-127.626850	0.750800
-127.904100	0.801500
-122.929150	0.588800
-119.366417	0.460500
-132.075500	1.229300
-120.929017	0.558000
-127.111933	1.004500
-125.316017	0.990300
-123.964367	0.937500
-129.536333	1.312000
-118.647700	0.668900
-125.025917	1.055400
-127.231450	1.195700
-112.466117	0.438300
-122.313467	1.035600
-115.993267	0.652500
-113.204200	0.482300
-125.450783	1.317700
-117.160367	0.863400
-118.319517	0.910500
-126.606583	1.411900
-119.651133	1.008100
-119.191767	0.987300
-111.941367	0.534000
-114.271367	0.675000
-115.027767	0.707400
-116.617233	0.794800
-113.813650	0.922100
-104.260600	0.370700
-108.706183	0.640600
-100.955533	0.162400
-114.640550	0.974600
-118.460417	1.270500
-113.213017	0.968100
-117.026200	1.226300
-108.627817	0.717600
-108.681117	0.831900
-106.977117	0.781200
-110.474633	0.977200
-106.645600	0.755000
-108.607933	0.874900
-109.925300	0.961100
-114.976400	1.257800
-105.241400	0.688400
-103.344750	0.585200
-111.954383	1.091200
-103.202233	0.788200
-97.493567	0.492000
-100.996433	0.709300
-98.428983	0.549400
-97.594533	0.493900
-109.046283	1.188400
-104.057033	0.895000
-101.184217	0.727500
-92.783433	0.298000
-98.316983	0.791800
-95.297983	0.631000
-105.516150	1.236800
-101.125000	0.984200
-96.552500	0.719600
-95.282800	0.633200
-96.165450	0.679100
-101.207450	1.010000
-103.304333	1.221100
-103.025617	1.216500
-100.135300	1.092800
-93.565433	0.702700
-97.056100	0.913400
-93.804683	0.709300
-91.545383	0.733300
-95.430983	0.971800
-95.394283	0.980500
-96.567733	1.048000
-89.872433	0.754300
-89.166300	0.767000
-92.059000	0.943100
-91.584333	0.929500
-94.516583	1.099600
-90.589367	0.883800
-90.623400	0.984200
-81.617150	0.505700
-78.945550	0.348200
-84.613633	0.705100
-84.169167	0.669600
-82.465267	0.556800
-83.389533	0.626500
-81.457017	0.516900
-79.602517	0.389700
-93.872733	1.244500
-94.325100	1.298900
-90.698083	1.198600
-77.677217	0.435600
-86.772100	0.992600
-79.867500	0.597800
-88.868917	1.131900
-77.267900	0.417800
-78.198967	0.501300
-80.231117	0.618600
-74.467467	0.484200
-78.982200	0.780500
-87.372133	1.290400
-83.158133	1.051000
-85.981417	1.232100
-78.617750	0.778700
-78.487350	0.956600
-82.664667	1.223700
-71.611483	0.563500
-65.315283	0.186700
-75.188633	0.775900
-76.731167	0.877800
-89.150867	1.649400
-78.601317	1.025700
-71.667567	0.630300
-73.672750	0.749900
-74.110617	0.874500
-69.969300	0.731300
-71.767483	0.835900
-68.015783	0.625900
-73.288283	0.988000
-73.719267	1.108500
-72.927150	1.073000
-67.366000	0.740000
-81.867200	1.613600
-71.632867	0.991200
-65.817667	0.633600
-58.890883	0.387100
-62.971300	0.647900
-62.156150	0.593000
-68.263767	0.945000
-67.581017	1.020600
-61.000767	0.666300
-59.388550	0.638900
-63.776517	0.905400
-64.664767	0.968700
-60.492150	0.716000
-61.296150	0.809900
-64.514600	1.030100
-59.975900	0.770000
-58.720767	0.699300
-63.163983	0.978100
-63.291933	0.975700
-60.586233	0.817900
-59.723433	0.753700
-58.692617	0.786900
-54.827950	0.738800
-55.567383	0.761500
-54.767500	0.735800
-58.493167	0.957600
-62.767700	1.215800
-54.445583	0.716800
-49.988017	0.459300
-61.091083	1.165000
-53.046267	0.952500
-53.115383	0.925600
-53.932133	0.962800
-58.595200	1.240100
-62.166617	1.521900
-56.537350	1.233500
-54.879850	1.205300
-50.205450	0.922700
-56.248783	1.286200
-61.521717	1.613700
-46.504050	0.757400
-49.156667	0.940500
-49.034350	0.922100
-49.704467	0.991200
-48.853117	0.937800
-45.517267	0.751500
-50.594883	1.120600
-55.192450	1.517900
-47.866200	1.104200
-47.984650	1.109600
-45.265383	0.994000
-47.394900	1.208600
-46.159500	1.145900
-40.476167	0.804300
-38.900300	0.718400
-41.044950	0.860900
-44.775183	1.073500
-30.063250	0.374300
-31.920867	0.480900
-36.631050	0.779000
-38.576083	0.895900
-38.193450	0.932600
-40.588467	1.094100
-42.893967	1.227600
-43.877950	1.289300
-37.426083	0.915700
-37.346717	0.910500
-32.121650	0.723500
-38.985917	1.165200
-38.547533	1.171600
-37.570917	1.131900
-37.953800	1.145000
-30.631283	0.705100
-31.723600	0.752900
-41.348067	1.346400
-50.259633	1.976800
-41.123050	1.628600
-30.539050	1.000100
-32.738183	1.157200
-32.455300	1.135100
-35.312533	1.301200
-28.640867	0.906000
-35.170733	1.303900
-34.360733	1.279600
-19.424950	0.629300
-32.716183	1.443400
-29.140133	1.227400
-24.150367	0.918300
-25.869383	1.157800
-24.413050	1.083500
-22.456600	0.964100
-19.484417	0.777300
-20.441950	0.833300
-29.064367	1.354500
-24.827283	1.248100
-19.321417	0.981000
-23.510233	1.222000
-18.672633	0.941200
-27.155817	1.436100
-20.869500	1.067900
-22.414100	1.154600
-17.974883	0.895900
-8.673533	0.509200
-12.284183	0.822700
-15.685517	1.018800
-13.087400	0.850100
-13.295883	0.853000
-15.405333	0.960100
-15.595017	0.972900
-14.165083	0.886600
-12.787067	0.817200
-22.389500	1.475300
-15.554183	1.099600
-15.023583	1.080700
-15.601133	1.112500
-15.321433	1.240300
-9.841467	0.958800
-17.910083	1.456000
-19.234117	1.561200
-14.663217	1.320000
-13.895067	1.273200
-4.614850	0.902600
-11.390083	1.327000
-6.701667	1.054800
-7.979417	1.127700
-1.423533	0.838900
-6.717283	1.183000
-2.169433	0.910900
-3.733767	1.011900
-8.270700	1.285400
-6.015983	1.152400
-8.117517	1.275300
-0.304700	0.812000
-2.426350	0.951800
-1.275383	0.886900
-1.900283	1.037500
-0.345217	1.141200
2.718183	0.976800
3.544533	0.966300
4.760683	0.880800
2.007017	1.027000
1.756850	1.052000
3.546667	1.048000
5.145600	0.967100
3.972333	1.087500
2.834333	1.155000
5.318800	1.024400
3.521350	1.131200
3.059400	1.166900
5.910967	0.977200
4.842117	1.049500
8.146983	0.840300
2.700050	1.328000
3.704283	1.336200
3.563417	1.390000
5.707667	1.249900
3.175483	1.414500
7.965983	1.141200
15.132333	0.779400
12.826833	0.968100
7.030067	1.310200
10.764217	1.086700
6.568517	1.386100
12.589217	1.118800
6.545567	1.484500
13.085483	1.142400
14.196633	1.074900
15.164267	1.013500
17.366517	0.894100
19.950333	0.839400
14.963250	1.126700
8.537350	1.568300
21.722700	0.776600
14.490217	1.219300
17.598783	1.033800
16.448917	1.223200
12.462250	1.507100
17.308400	1.257800
17.688967	1.255000
14.184533	1.486500
23.838417	0.882100
16.268117	1.434400
13.471650	1.651400
20.966017	1.229500
21.863850	1.171700
27.866150	0.816500
24.986583	0.990300
36.301367	0.397600
30.341367	0.712300
26.143767	0.969700
21.046533	1.283700
22.398500	1.228100
24.560250	1.190300
21.020800	1.408700
27.795917	1.045600
26.975650	1.102100
20.235000	1.489400
30.621667	0.916000
22.283200	1.523300
25.708017	1.364200
23.778500	1.498100
35.209733	0.848700
34.249600	0.900500
31.084017	1.078000
37.467050	0.820700
33.265567	1.065700
26.357283	1.490100
38.701150	0.749000
31.251200	1.238600
26.451600	1.542800
23.478883	1.786500
31.785967	1.312900
33.382983	1.230900
32.160950	1.289900
44.818617	0.701800
37.322867	1.114900
47.990683	0.492000
35.421733	1.250400
31.169333	1.558200
37.036483	1.294800
35.067817	1.441000
37.004033	1.372500
37.530783	1.365300
35.783617	1.468300
38.934233	1.278000
40.207150	1.322000
35.179517	1.637500
39.956100	1.369400
46.670217	0.967600
42.532267	1.212700
41.666333	1.280400
50.839283	0.796200
44.700017	1.149100
41.275267	1.368700
35.386767	1.747300
41.754233	1.436100
38.412317	1.645300
43.913417	1.375300
46.478350	1.236800
44.235283	1.375800
43.164683	1.446600
42.964383	1.516200
46.264267	1.414600
47.517667	1.352200
49.906183	1.186800
52.963800	1.093700
52.183550	1.215800
56.290433	0.982800
50.423033	1.368300
56.178233	1.027800
52.139600	1.283000
54.547200	1.168100
53.558500	1.256600
54.826100	1.205300
56.141217	1.149400
50.872800	1.462700
51.000600	1.477400
59.996867	0.959200
65.609933	0.685500
61.587667	0.928000
60.765183	0.999000
58.781500	1.128200
61.098950	1.154600
63.216350	1.030100
71.427067	0.571900
66.423550	0.870800
63.784833	1.072500
66.834350	0.891800
59.241300	1.380200
57.702833	1.458900
55.275567	1.614400
61.283350	1.249100
60.417117	1.375300
62.221850	1.399100
61.141133	1.477200
62.464317	1.427800
67.269983	1.173900
70.663300	0.989000
66.513350	1.242800
60.932017	1.581700
61.639450	1.558700
66.462183	1.304100
64.145650	1.479800
63.649400	1.507400
64.071767	1.487800
70.491633	1.163400
70.759150	1.150100
67.107283	1.431600
63.722200	1.621700
65.664933	1.507800
71.459433	1.164000
74.690433	1.086900
76.295317	1.008100
65.973567	1.664500
76.540600	1.086500
77.079017	1.079500
67.494767	1.645300
68.601967	1.614400
71.432033	1.413000
78.247300	0.998300
71.728783	1.374900
78.326550	1.097300
74.892967	1.482700
77.309183	1.368600
74.543717	1.526800
73.463633	1.657500
80.148267	1.359700
77.669017	1.514800
80.591683	1.336800
81.899150	1.298900
85.173833	1.207800
86.141567	1.141600
86.046617	1.144900
82.703833	1.348200
87.973333	1.159200
82.213500	1.530500
88.783550	1.124000
86.629567	1.245700
92.780467	1.005400
90.134017	1.193500
75.931800	2.049800
84.889933	1.537500
83.271067	1.648900
90.562567	1.208500
89.609317	1.352200
82.830167	1.757200
88.458500	1.455500
91.986917	1.264300
91.920433	1.328400
91.977850	1.431800
86.223267	1.783600
88.787450	1.643300
87.177417	1.807000
96.305200	1.378400
101.985117	1.037500
97.633250	1.289300
96.836050	1.364900
93.254983	1.671300
97.689983	1.425600
96.061800	1.550300
102.261133	1.176900
98.556933	1.516500
93.854950	1.800800
100.437350	1.424300
95.547767	1.694200
99.596917	1.579000
103.766983	1.350000
101.758533	1.468200
99.743100	1.580600
115.069683	0.665100
105.214317	1.260700
106.764550	1.144100
90.981550	2.063300
117.706933	0.735900
113.886067	0.978100
106.237500	1.445000
101.599533	1.706400
106.401950	1.502300
103.682417	1.731700
111.267683	1.294500
114.137717	1.122100
110.811583	1.323000
115.945750	1.003400
112.790533	1.243500
115.672017	1.183000
120.372400	0.914900
111.424550	1.442300
111.196100	1.451900
113.752583	1.435200
113.065033	1.480200
112.993683	1.499700
112.418317	1.563700
106.711633	2.057400
113.168067	1.681900
116.536833	1.488600
118.994317	1.373200
117.763583	1.485900
117.871700	1.477400
124.809967	1.055500
128.232567	0.850600
117.498917	1.490800
115.426450	1.623800
122.684483	1.337100
115.820750	1.806500
112.658417	2.010400
122.102333	1.457100
121.570083	1.499100
125.541350	1.267700
127.384550	1.152200
122.329100	1.448900
122.385767	1.708900
129.085133	1.336800
123.326200	1.681100
131.459000	1.202300
136.671983	0.937800
134.435467	1.153600
134.446317	1.161100
126.282550	1.649900
131.992283	1.347000
136.975117	1.154200
134.398917	1.322500
136.122617	1.213600
137.344250	1.144100
136.599333	1.157400
141.860317	0.832600
126.764917	1.716100
138.772167	1.005400
138.650700	1.244000
137.018383	1.369500
140.973467	1.147000
138.752617	1.274800
138.300417	1.310200
135.564133	1.448400
139.212200	1.236800
140.125200	1.196600
143.287117	1.191400
138.471200	1.547600
141.973800	1.340900
148.322133	0.964800
141.884883	1.327500
142.454267	1.288600
144.571050	1.158500
140.601483	1.402500
146.406700	1.034900
147.919783	0.930000
140.520000	1.375400
141.869950	1.288700
140.901417	1.356400
143.124850	1.558700
146.446500	1.434200
146.266567	1.462300
146.307683	1.465200
139.376783	1.893300
149.211717	1.320100
148.708650	1.541000
153.877200	1.255700
162.246650	0.748400
151.735667	1.381600
161.102567	0.874900
155.990617	1.242100
153.508033	1.386300
154.735917	1.299700
150.503833	1.569600
149.847167	1.600900
144.929333	1.941900
152.807500	1.539800
151.210533	1.654800
146.567200	1.949600
144.856950	2.080400
153.747650	1.604000
151.774367	1.726600
151.083417	1.798000
158.015250	1.382600
165.922517	0.913900
153.248167	1.682200
156.255367	1.666900
163.494467	1.261000
162.708500	1.313300
155.392233	1.764600
152.485250	1.937900
156.644767	1.697800
155.516000	1.755500
166.838483	1.107000
151.630183	2.259600
164.093900	1.563800
172.286483	1.071600
160.206050	1.792100
162.064083	1.798800
162.739533	1.794900
160.427683	1.932600
166.103350	1.601900
162.723150	1.804100
158.646467	2.065000
171.484367	1.345000
175.175917	1.164700
174.843967	1.189600
168.623300	1.576400
165.752717	1.753600
163.602600	1.894700
167.229217	1.680400
166.413883	1.728000
163.659017	1.890700
169.757167	1.787500
171.841533	1.737300
174.352283	1.587600
176.087133	1.490700
172.988533	1.700700
165.959667	2.129200
175.724667	1.558300
174.737883	1.602600
182.507683	1.415100
168.905967	2.246800
167.907733	2.311500
176.292867	1.832800
176.033433	1.910400
177.673867	1.820800
177.342600	1.866200
178.464033	1.803300
181.441383	1.641900
178.488783	1.821600
185.694200	1.481300
191.229383	1.252800
181.430717	1.843000
180.542483	1.911900
179.033433	1.995300
179.557067	1.963900
179.911233	1.931100
182.769733	1.781700
182.909350	1.819400
183.233200	2.049800
183.238367	2.054200
189.751667	1.695700
189.150650	1.735100
187.888783	1.813800
186.958650	1.862000
194.238350	1.422500
188.532550	1.753700
186.151050	2.171900
194.187000	1.702700
192.471333	1.814400
196.588567	1.553800
201.727550	1.418600
193.081817	1.905400
210.115867	0.876400
203.683483	1.222800
204.681117	1.299700
190.341450	2.140700
200.342483	1.570200
206.361350	1.203500
200.198100	1.583900
197.276817	1.810600
195.626133	1.920900
206.633683	1.283700
207.040650	1.239800
198.199883	1.778400
201.460217	1.663000
200.743317	1.820800
194.660800	2.201900
200.783183	1.842600
205.243000	1.581500
199.684833	1.926300
203.529883	1.678200
202.544333	1.749000
197.125667	2.091700
204.272683	1.969800
207.177250	1.802000
201.129050	2.170400
211.136250	1.562000
209.739833	1.700100
209.334167	1.747300
209.845900	1.731200
218.828150	1.181000
212.414933	1.574700
209.415800	1.758800
209.740117	1.811500
216.508883	1.458300
210.552383	1.829100
211.186850	1.800200
212.663133	1.720800
208.550183	1.977300
212.500233	1.753800
210.330750	1.886600
210.963000	1.944500
211.206683	2.220000
218.070267	1.838500
210.988250	2.251100
221.194117	1.677400
216.987600	1.910600
223.582100	1.530500
224.311583	1.488000
229.149100	1.196300
223.532483	1.792800
223.150900	1.846700
219.668400	2.051900
223.828533	1.807500
221.377483	2.025300
213.125233	2.532900
229.214517	1.575100
225.964150	1.766600
233.551167	1.297300
231.301783	1.427700
235.744533	1.305900
235.154083	1.371900
232.821217	1.490500
228.385750	1.756100
227.641567	1.786000
234.755400	1.355900
218.266183	2.340900
222.008783	2.135100
228.405450	1.835600
222.067583	2.420400
227.988150	2.111000
234.509667	1.721200
237.850650	1.541900
233.631900	1.814600
239.807333	1.452900
235.833683	1.668600
235.789083	1.670400
239.079683	1.587600
232.694450	1.979600
231.370833	2.082600
236.332917	1.823500
237.557067	1.929100
230.449450	2.333000
238.230200	1.897100
240.682650	1.758800
236.649867	2.110600
243.866117	1.708900
251.958367	1.227700
238.614950	2.053700
255.194050	1.085600
247.174050	1.536800
248.350150	1.466000
247.882767	1.495000
244.531683	1.719300
237.180917	2.150500
237.321683	2.280600
246.125000	1.964600
250.259433	1.748400
249.420500	1.814900
251.397483	1.732500
255.949000	1.562000
250.220583	1.911900
250.695550	1.855100
253.425617	1.687900
253.936517	1.797100
251.145733	2.001900
255.235700	1.770200
254.561300	1.804100
256.838283	1.650600
258.927050	1.528400
253.104450	1.874900
255.841850	1.731200
252.494933	1.945200
256.693767	1.693900
263.697400	1.601300
252.439367	2.294500
261.263367	1.780300
260.478533	1.835400
255.462367	2.266600
256.715567	2.186500
263.101567	1.843000
263.514033	1.813800
248.667533	2.747400
256.723033	2.271000
264.487067	1.819900
257.403767	2.243200
252.703983	2.540400
260.853683	2.118000
257.114800	2.343500
266.592883	1.813200
267.295850	1.767800
263.593000	2.061200
268.763000	1.745600
267.609167	1.829800
266.473717	1.913800
261.589000	2.212400
260.418700	2.297600
274.123050	1.517000
273.302767	1.573900
262.954150	2.222900
273.523250	1.595900
269.181600	2.191400
270.973783	2.111400
271.968333	2.088600
279.268333	1.666200
280.135383	1.665000
269.470483	2.304600
270.417050	2.257100
274.088983	2.047200
271.420567	2.210800
274.031333	2.065500
272.484400	2.180000
273.794467	2.113000
275.276267	2.083300
278.090833	2.143800
272.497600	2.503100
278.605317	2.153800
280.195817	2.068300
284.419133	1.974300
286.534800	1.860200
283.256200	2.072300
287.495433	1.812300
288.728767	1.731700
282.952583	2.072700
287.055750	1.844600
286.576233	1.877400
282.425217	2.114500
297.609567	1.237600
291.235850	1.870400
286.891017	2.143900
283.021183	2.387400
287.514567	2.122600
295.840917	1.773400
288.780433	2.259600
293.215717	1.995100
299.906450	1.589300
296.170800	1.805000
301.883483	1.458900
291.180067	2.088700
288.374133	2.263800
300.804933	1.657200
298.024117	1.981600
295.091067	2.172700
295.607167	2.179600
304.164317	1.677400
307.652950	1.463600
304.101800	1.650800
299.338100	1.942700
289.791500	2.539100
293.095750	2.628800
297.127600	2.398400
299.912717	2.247100
300.670450	2.215400
315.256083	1.407300
305.929017	1.950100
307.868300	1.838900
306.005050	1.961300
309.278400	1.918700
303.126750	2.284400
315.814233	1.531800
309.603883	1.889700
310.317450	2.060300
309.660300	2.050400
307.683733	2.167800
308.377467	2.152900
310.183633	2.125200
308.432167	2.285200
306.608950	2.427800
312.123767	2.133400
318.977133	1.727700
319.369750	1.702700
319.095000	1.697600
320.953583	1.612800
317.901133	1.783800
321.938483	1.544700
318.638700	1.764500
317.876333	1.912200
319.902933	1.795200
318.429950	1.876100
315.967850	2.040200
314.586867	2.317300
323.621333	1.808100
317.655833	2.171700
314.581100	2.366000
327.697800	1.753400
328.945633	1.699500
322.373600	2.089100
324.360700	1.986200
321.721917	2.126200
323.524600	2.032400
326.024000	1.874900
316.161533	2.459400
325.940617	1.913800
325.916100	1.924700
322.523883	2.299500
331.728017	1.918000
328.285467	2.160700
337.520017	1.601200
336.299500	1.663400
329.607267	2.049400
334.349367	1.781500
336.190133	1.661100
334.508867	1.772500
329.440783	2.198400
335.106717	1.864600
331.446000	2.100500
330.464433	2.171400
337.505717	1.819300
327.151900	2.450900
338.782767	1.828900
343.441983	1.519200
336.713850	1.943300
334.237967	2.101000
340.659950	1.887200
339.931050	1.982300
336.253150	2.235500
332.062767	2.508100
346.145617	1.645900
344.092017	1.780600
343.454267	1.831600
338.884183	2.131800
341.171250	2.040800
341.271467	2.082100
336.364383	2.392800
341.976033	2.097600
342.786767	2.067100
333.836800	2.613200
339.067433	2.333400
335.626333	2.555400
340.915383	2.343900
347.007617	2.205100
347.079400	2.224400
343.667483	2.432100
343.233917	2.488900
348.158017	2.342200
350.418133	2.229600
358.021433	1.803900
356.832183	1.852500
347.186350	2.539400
355.519467	2.080000
349.590700	2.439500
356.182117	2.059300
356.541150	2.026400
351.931000	2.308400
356.022283	2.086500
355.235033	2.124300
355.645400	2.101400
354.619167	2.164900
352.304133	2.484000
363.805500	1.979300
361.771767	2.105500
356.577333	2.442000
363.983250	2.008700
360.807800	2.194700
358.338867	2.319700
360.951767	2.150500
365.473950	1.896800
362.427533	2.198700
364.928217	2.013100
365.056600	2.038100
365.907267	2.032300
362.874917	2.341300
365.098217	2.226400
369.559933	1.986300
362.597883	2.429700
368.838817	2.133700
361.622483	2.546100
367.069583	2.229300
362.171933	2.535300
370.840100	2.050100
362.059850	2.567600
361.154033	2.667600
362.776117	2.576200
370.057767	2.144200
366.182500	2.357000
369.876650	2.445800
376.485217	2.202400
373.039333	2.423100
375.308450	2.258900
379.839483	2.010300
378.052083	2.148300
377.527967	2.189200
375.051617	2.328400
381.421450	2.009900
384.646100	2.018000
387.392900	1.838900
382.643617	2.121700
384.247650	2.069900
381.459733	2.341500
379.736700	2.440700
387.006233	2.001300
385.437367	2.088100
386.929233	2.129700
383.059950	2.364500
386.902983	2.133000
386.285333	2.185800
385.739783	2.228100
385.791200	2.212400
384.019867	2.327800
382.278317	2.443900
380.985467	2.668000
391.818350	2.041700
392.717567	1.971100
383.824350	2.530400
388.429683	2.289300
390.729133	2.145000
378.806033	2.887200
390.671783	2.178000
398.678000	1.906400
401.119450	1.830800
393.704100	2.319500
390.060100	2.583500
397.669350	2.149400
395.402733	2.312400
398.943450	2.084300
399.031433	2.086500
400.591450	2.020100
405.184467	1.760800
397.316117	2.296300
403.144550	2.127200
391.592950	2.828900
399.724250	2.373800
401.944183	2.268300
395.550983	2.662500
399.066717	2.465800
404.300550	2.170400
412.305017	1.671700
405.064017	2.327200
408.616383	2.158500
406.892167	2.278600
416.865467	1.669300
410.213583	2.059200
394.763917	3.000400
405.747083	2.359200
408.429183	2.198700
409.281150	2.396000
409.535717	2.435800
413.128917	2.264800
412.509067	2.295100
413.383450	2.255000
412.538767	2.305600
414.982067	2.146600
414.863600	2.127200
413.651350	2.212400
411.401817	2.365000
412.895217	2.403400
422.288333	2.001900
421.486533	2.034900
421.978317	2.015500
419.934017	2.142400
424.072817	1.888900
419.360000	2.160800
420.244383	2.117400
425.453550	1.819400
418.779467	2.446900
416.384717	2.621500
417.486100	2.580800
434.716950	1.572500
428.637517	1.937500
430.536183	1.790400
428.309017	1.935400
423.026383	2.237100
429.982183	2.086500
430.907217	2.070100
429.923050	2.195900
435.200700	1.901000
426.990950	2.385500
427.456117	2.372800
428.949400	2.276900
420.975633	2.775900
428.490317	2.346100
427.092067	2.437900
432.055817	2.224600
431.532950	2.478500
432.138200	2.453600
429.144283	2.623800
426.322733	2.818200
435.499033	2.278500
436.048450	2.243000
436.329000	2.237600
429.031450	2.676800
436.915833	2.476500
437.460717	2.480500
439.696517	2.348200
444.193700	2.059100
438.000850	2.423900
436.933067	2.503000
439.723967	2.349400
452.070433	1.595700
448.814000	2.081300
451.927233	1.913700
449.934433	2.040600
447.804233	2.162400
443.583250	2.533100
443.935000	2.554700
431.038700	3.340100
448.575867	2.317300
452.457067	2.077000
444.623400	2.529200
446.898517	2.458000
450.972050	2.311400
449.132117	2.423800
449.664850	2.418500
456.447283	2.034900
459.237583	1.854000
451.125150	2.316500
443.479533	2.775600
448.400500	2.510600
454.052467	2.437600
453.627383	2.492100
456.044200	2.343500
451.081483	2.661000
460.813683	2.101500
460.309333	2.118000
460.830400	2.271200
460.544517	2.296300
455.895867	2.579500
460.876583	2.291700
454.895033	2.655600
455.585017	2.614300
461.162117	2.286700
467.680683	1.893000
466.642267	2.126800
467.796533	2.160600
470.375400	2.021900
463.650300	2.407400
462.167950	2.504300
469.045817	2.109400
465.938550	2.307500
466.459817	2.248300
470.528083	2.067900
466.641783	2.512800
465.602733	2.602800
471.554550	2.279300
471.261933	2.294100
470.677650	2.484200
468.232800	2.636000
475.072950	2.255000
474.726200	2.261000
482.176783	1.934400
471.077017	2.629600
483.582383	1.892700
466.271767	2.928100
473.863033	2.487900
481.440250	2.029100
475.784733	2.359200
475.347133	2.394600
475.969433	2.377800
479.426183	2.176800
466.854350	3.085700
480.113467	2.295100
475.880867	2.572300
479.881117	2.342800
476.203633	2.593800
478.550767	2.521300
476.910467	2.624800
484.560133	2.172900
482.862433	2.340000
484.264800	2.354900
480.485683	2.595600
483.128517	2.469400
481.291667	2.598100
483.070883	2.505300
483.983700	2.446400
485.558100	2.364200
474.722683	3.063600
488.347650	2.535800
484.979183	2.769000
496.239883	2.098200
499.200433	1.941300
497.269567	2.052400
493.990867	2.239000
488.566783	2.555400
490.272767	2.470900
484.724117	2.929600
491.848017	2.540200
497.762967	2.264800
491.992067	2.643700
493.444450	2.573600
494.275150	2.548700
496.987783	2.511300
494.412300	2.698400
492.046733	2.869500
492.105617	2.876500
495.563267	2.782900
507.876600	2.126600
501.096717	2.510500
500.837500	2.549300
503.146583	2.426400
506.394333	2.230200
510.260517	2.011300
504.257467	2.378800
504.823417	2.357500
500.392117	2.650300
493.868867	3.067300
500.056233	3.016800
504.516900	2.791400
506.426517	2.670400
496.161133	3.292800
501.455467	3.004900
496.256950	3.317900
504.254283	2.939700
504.264933	2.963100
503.847717	3.017500
513.924567	2.397700
511.468750	2.537600
510.674650	2.608400
519.692367	2.293300
514.661183	2.577300
519.477583	2.312400
509.977667	2.880700
520.925367	2.318800
510.823317	2.967700
501.698233	3.527100
516.922317	2.646400
521.092150	2.402000
528.029250	1.978100
518.468333	2.628000
525.380183	2.314800
517.413817	2.805100
521.976133	2.552700
524.120767	2.444200
524.191250	2.435900
512.742150	3.129200
516.781317	2.900500
525.650067	2.418700
519.672467	2.866000
520.222233	2.839500
519.087533	2.950800
520.844817	2.855500
524.621733	2.628900
526.234950	2.549600
524.420350	2.664500
530.123300	2.336900
525.154117	2.826400
529.537867	2.613100
522.264650	3.064400
522.815467	3.058600
524.175183	2.999100
523.549033	3.049800
534.816883	2.401200
532.716800	2.527700
530.894767	2.911000
539.196033	2.445300
539.632517	2.427400
538.089617	2.540200
536.657533	2.658900
532.828450	2.974700
540.398717	2.559400
541.216683	2.481900
542.104250	2.482100
537.532967	2.865100
535.885667	2.965000
538.894700	2.852300
544.550733	2.513400
541.294883	2.687700
544.092967	2.530900
537.043650	2.953700
536.024383	3.024300
546.213983	2.438400
548.981083	2.280600
542.503800	2.740100
549.385283	2.371500
546.194583	2.564100
546.550550	2.552300
536.194167	3.170500
543.911533	2.723100
541.947833	2.872500
546.372233	2.607300
547.645250	2.841800
545.813100	2.953100
545.433150	2.992400
551.067083	2.655300
544.316400	3.146000
555.921300	2.451500
552.642083	2.675400
548.502200	2.928800
554.082417	2.618500
556.244433	2.531700
551.506050	2.849000
549.236283	3.016800
550.376667	2.959600
550.982617	2.969500
559.624383	2.458500
549.278300	3.098300
548.451517	3.149200
551.137133	3.021300
553.625717	2.906200
561.832200	2.721500
560.025700	2.860700
557.373067	3.022600
561.952650	2.758700
563.414400	2.717600
566.541050	2.537600
561.311933	2.850600
559.084200	2.992100
566.202783	2.907300
567.463200	2.840600
574.418683	2.415900
562.173183	3.162600
570.366900	2.778800
569.839700	2.768300
566.749550	2.969600
572.144633	2.662800
575.038650	2.545400
568.149983	3.028500
570.683583	2.899500
571.741650	2.842400
570.754983	2.907300
575.320933	2.626200
574.335800	2.699000
564.360450	3.306800
566.764300	3.149300
564.146617	3.293500
563.108800	3.398600
571.554550	3.211400
572.945767	3.204400
578.834700	2.860100
577.672617	2.939500
582.532500	2.672600
573.799683	3.179100
576.096250	3.060800
584.224067	2.588200
582.724250	2.922200
583.398217	2.929600
581.987217	2.999800
581.118667	3.067000
588.780700	2.768300
582.971100	3.135500
586.380167	2.949700
589.577383	2.765700
583.939967	3.199900
586.875950	3.083000
589.704217	2.933800
589.338583	2.970300
589.524433	2.934600
594.723383	2.633400
596.371250	2.533400
584.838533	3.214500
588.300833	3.041100
593.294167	2.989300
586.839317	3.399400
584.270467	3.615400
585.541917	3.576100
590.708350	3.266300
597.658217	2.835700
600.860000	2.626700
598.312000	2.785100
606.101633	2.299200
595.067333	2.935500
587.636583	3.639000
600.564783	2.942100
600.899517	2.940400
599.031900	3.050300
609.379800	2.446700
596.796183	3.222300
603.367817	2.816800
598.670517	3.090400
606.705417	2.883700
602.745883	3.162600
605.280233	3.019500
601.443117	3.250900
612.181550	2.688500
605.769717	3.151900
606.922317	3.045700
611.328900	2.812100
610.290983	2.858700
609.901850	2.882000
604.369467	3.217000
611.207150	3.003800
610.298733	3.077100
610.803533	3.063300
614.406767	2.834800
616.878883	2.649900
611.342517	2.972200
613.593550	2.829800
607.299283	3.202200
613.741067	2.825800
609.336567	3.115900
616.030300	3.004400
615.386033	3.161100
628.038800	2.424800
621.659933	2.798100
610.998750	3.447200
609.259667	3.545200
617.694933	3.200700
620.939017	3.085000
624.802533	2.886000
626.181467	2.815600
630.700483	2.493900
625.218367	2.811400
618.281950	3.230600
627.112733	2.705400
625.600267	2.772100
615.497667	3.392200
615.807600	3.421400
628.128267	2.803300
632.989950	2.521100
623.399600	3.122000
621.949433	3.235200
622.703450	3.329000
626.922567	3.103000
630.462567	2.936200
631.824067	2.890300
625.741500	3.266300
617.161633	3.767400
621.916733	3.509400
630.277283	3.037800
631.080783	3.005100
634.785933	2.761800
631.404233	2.964900
628.609567	3.175000
637.439567	2.940400
629.142633	3.510000
633.381517	3.279400
640.908867	2.837800
626.381450	3.733400
631.035067	3.427600
629.493450	3.562100
631.334383	3.467100
634.053783	3.404700
633.986600	3.443600
636.146750	3.325100
630.577533	3.691500
633.266800	3.630500
642.310417	3.147100
639.652567	3.314800
641.631400	3.241100
643.261950	3.164300
642.044100	3.236300
640.718417	3.344500
652.493617	2.707900
650.837267	2.813800
645.117167	3.155200
648.765000	2.948600
648.809083	2.982900
648.146900	3.029000
648.195683	3.006600
655.622317	2.582200
651.164550	3.104000
654.642650	2.934800
648.654833	3.364500
645.368217	3.580000
655.455233	2.997600
652.725350	3.185300
657.185100	3.034400
659.378150	2.961800
657.011633	3.103200
655.540483	3.204600
659.001533	3.009600
658.700600	3.027800
663.039600	2.781800
659.958083	2.969400
643.460617	4.216000
651.163333	3.794400
660.075067	3.295300
659.396800	3.361700
666.774633	2.981100
662.774200	3.329900
660.393567	3.487300
668.406550	3.011600
664.153567	3.266200
654.454783	3.858300
660.655550	3.507500
667.858600	3.089300
668.170200	3.067700
672.707100	3.089000
674.070517	3.046300
672.565467	3.123700
678.376917	2.776000
674.931333	3.012900
679.705733	2.725200
681.528817	2.602300
675.606767	2.932900
668.047700	3.357800
671.218583	3.194100
680.520350	2.626700
676.694183	2.855400
673.501683	3.054000
673.426367	3.077800
667.913433	3.594600
673.159117	3.457000
681.095583	3.006300
677.514000	3.246200
678.516017	3.189700
680.038550	3.086300
686.026950	2.729600
674.760700	3.400100
676.056700	3.451700
683.008767	3.225700
683.912083	3.189600
682.893783	3.262500
685.121017	3.158200
683.820733	3.341100
676.399233	3.786600
686.760950	3.191600
682.749067	3.431500
685.378167	3.395800
685.545133	3.431700
685.273983	3.475800
697.030433	2.760900
695.773850	2.805800
683.746500	3.527300
686.685167	3.373300
682.341183	3.632700
690.969133	3.146700
683.131750	3.595400
687.491517	3.443200
695.579150	3.008000
697.403683	2.940600
697.121250	2.982500
704.672700	2.527100
698.456200	2.894900
689.704667	3.432400
694.550117	3.161200
695.803467	3.169600
700.100600	3.153200
695.392833	3.437700
702.239183	3.052200
703.487567	3.005200
694.377250	3.664400
697.261233	3.490800
702.518783	3.182400
696.985083	3.507000
702.796467	3.254200
698.299450	3.513800
699.505067	3.454900
694.169367	3.797200
702.915533	3.295500
696.765200	3.651500
705.053950	3.336800
705.051733	3.396300
700.095333	3.710100
699.818467	3.735400
712.869983	2.988600
705.603600	3.425000
701.711367	3.660700
702.505783	3.606900
709.449750	3.424700
707.507300	3.638300
707.805800	3.644600
713.740617	3.273400
704.610033	3.842100
712.204183	3.429900
709.301217	3.613300
705.856967	3.807400
708.305983	3.772800
718.165433	3.409800
716.281967	3.555100
714.937383	3.642300
724.233417	3.070900
724.932300	3.023600
718.380917	3.391600
715.928083	3.537300
718.270783	3.385500
721.745500	3.462800
716.151433	3.826200
716.689283	3.792000
717.875717	3.755200
723.272217	3.553900
726.055917	3.436900
724.710950	3.509600
722.664600	3.638300
727.782567	3.352600
727.168083	3.389400
739.089500	2.807300
732.749983	3.232800
734.708450	3.116900
733.504700	3.180500
733.159333	3.182400
729.350867	3.392200
734.408450	3.105500
732.079183	3.234900
739.495650	2.874200
734.630717	3.372400
735.525583	3.366300
732.267417	3.553900
736.513483	3.281400
730.460800	3.662900
728.023883	3.816600
731.401733	3.648900
735.138733	3.433200
740.448533	3.393900
741.784283	3.335700
747.037550	3.040400
739.499717	3.494800
741.199250	3.517100
747.455717	3.187300
747.281100	3.186200
742.542383	3.465600
740.174267	3.606100
742.601317	3.484600
750.714100	3.060200
752.009183	3.009600
747.458550	3.316100
737.620167	3.901300
740.958200	3.722900
744.333833	3.546600
748.144483	3.321900
753.284117	3.008200
746.650267	3.423100
750.566050	3.286400
746.091117	3.565600
747.860933	3.486900
748.462083	3.476100
751.820333	3.303300
746.472667	3.612400
753.152550	3.258800
749.774567	3.456700
761.426583	3.030600
755.463183	3.412800
756.474117	3.372100
756.198417	3.403000
758.078283	3.354000
757.125533	3.441600
758.429317	3.369100
756.950183	3.484800
758.647500	3.368900
758.328383	3.403500
753.740183	3.765900
766.403700	3.165200
752.424617	4.017400
758.653717	3.665200
758.617433	3.690000
761.301550	3.532400
761.966867	3.504700
765.586200	3.309200
757.468367	3.874600
759.630017	3.977800
765.008333	3.684300
763.188833	3.811800
763.007200	3.856400
773.962967	3.192700
768.889950	3.479600
774.133917	3.175000
772.707200	3.280100
773.959550	3.471200
775.872917	3.377500
768.103917	3.836200
770.600517	3.714700
778.485333	3.394500
767.279717	4.099300
773.395950	3.776600
784.052950	3.150200
782.267650	3.246500
781.219550	3.318200
783.894617	3.165100
772.517783	3.825900
771.376883	3.906900
780.096100	3.391700
759.827483	4.663500
773.382583	3.844200
776.060783	3.680100
771.264150	3.971900
779.507533	3.797100
785.551117	3.640600
777.445100	4.152200
781.252700	3.950000
779.081417	4.093300
784.005567	3.806200
786.831367	3.648100
781.350717	3.979900
779.499867	4.163500
783.520783	4.172400
786.536633	4.006200
789.535817	3.832300
793.008200	3.615800
799.184900	3.422900
796.303133	3.580200
795.657383	3.613800
795.346667	3.640300
790.873050	3.933800
798.095983	3.556800
801.504700	3.336800
797.802783	3.550500
790.306283	4.004400
790.473700	3.996800
791.949583	3.917400
787.967733	4.151100
791.277083	3.982200
793.662833	3.865200
789.169017	4.204600
808.688517	3.315100
808.063550	3.382700
804.078000	3.624500
806.208183	3.494100
803.554683	3.629700
798.112133	3.973200
806.680950	3.662600
812.273500	3.332600
803.312083	3.899700
811.768483	3.416100
808.559100	3.644300
804.163983	3.932700
812.047783	3.478200
801.670083	4.083300
810.342200	3.570800
811.955433	3.484800
801.975317	4.234300
809.069150	3.860000
811.055250	3.797900
813.687967	3.654100
817.138400	3.481700
810.275117	3.869800
817.037950	3.471200
816.917467	3.471700
810.780633	3.837600
817.769317	3.411700
811.189183	3.904800
810.656350	4.051400
816.318150	3.751400
816.204350	3.764900
813.457900	3.938000
822.540517	3.394300
822.882417	3.372400
824.188333	3.561000
828.809067	3.344500
822.272300	3.764900
827.808167	3.441100
825.056917	3.611200
823.497717	3.711700
821.732367	3.845800
824.589400	3.657200
820.150600	3.926300
827.333167	3.484000
829.493550	3.653000
819.260167	4.272100
826.359000	3.885500
828.594017	3.757000
827.735600	3.948500
835.753217	3.473500
834.837217	3.532000
827.422133	3.981900
835.272267	3.578500
828.908817	4.042600
823.714667	4.369600
827.997700	4.154900
823.556050	4.445900
842.382883	3.341100
843.442233	3.284100
839.694333	3.498600
829.750850	4.109600
839.462167	3.628000
839.229550	3.668600
836.980250	3.814400
842.224667	3.506800
846.982150	3.223100
843.850667	3.400000
843.055867	3.444400
843.113650	3.437600
837.233367	3.796900
841.175433	3.579300
842.475750	3.814400
844.246050	3.783500
847.317383	3.626100
844.843500	3.796400
847.209600	3.653000
847.029550	3.676400
846.378350	3.710300
843.732617	3.876400
847.198450	3.987800
852.216967	3.692800
857.459800	3.418700
853.729917	3.598900
855.643667	3.525100
852.435683	3.758100
852.686683	3.772500
853.447883	3.786600
850.041367	4.008100
863.980500	3.178100
860.487183	3.375000
861.342650	3.414500
858.322650	3.581300
858.041800	3.633800
851.566083	4.036800
849.970783	4.176300
856.935833	3.785100
859.094817	3.771700
862.233083	3.628500
867.602333	3.305100
869.261783	3.236400
862.007483	3.703800
865.500000	3.524300
871.191300	3.195800
867.528017	3.412600
860.321867	3.827800
860.123767	3.873100
868.424333	3.761400
864.040817	4.074700
868.302550	3.860000
870.024833	3.762300
871.652783	3.760500
875.749483	3.608100
864.028217	4.306600
871.987067	3.871900
869.054850	4.056500
866.574083	4.203600
871.429017	3.984400
866.594567	4.433500
878.380617	3.743200
873.286500	4.058600
871.728067	4.132000
866.026933	4.492800
869.049500	4.337900
885.635850	3.561800
878.329900	3.983600
860.818900	5.075000
870.403217	4.525000
877.813533	4.235400
876.812867	4.335100
878.610483	4.275900
878.082750	4.273700
881.023067	4.106200
884.263033	3.922200
885.747167	3.911800
885.830933	3.907200
884.261450	4.009400
880.216483	4.278900
886.951050	3.987200
891.334350	3.810200
895.875350	3.515000
889.450650	3.913100
890.227500	3.847100
891.906900	3.732800
891.139617	3.847300
895.641250	3.692300
885.924833	4.278900
893.221383	3.836400
898.127617	3.559600
891.303500	4.094000
890.922017	4.117600
898.852433	3.660000
884.826317	4.488700
892.114833	4.083300
902.870083	3.452400
893.898483	4.165500
895.057033	4.148400
892.207183	4.320900
897.821800	3.971900
893.932733	4.233900
896.353367	4.098700
892.510667	4.389100
892.930267	4.413100
901.115633	3.947700
891.154900	4.553000
898.378967	4.229500
899.050417	4.273300
893.438717	4.634800
899.985500	4.256600
905.672833	3.915000
907.944333	3.774900
901.758217	4.205500
905.829083	4.111800
900.166817	4.458700
896.662050	4.688000
910.010117	3.928000
898.529033	4.774800
903.150400	4.535600
911.034450	4.068500
912.302250	3.996500
918.808633	3.747900
911.624050	4.216700
906.382717	4.540600
909.957033	4.353300
904.446517	4.774300
914.926667	4.191100
912.743983	4.323300
908.729950	4.576400
911.617833	4.412700
916.279217	4.144900
907.512417	4.674400
909.606600	4.571300
924.653483	3.855600
924.032183	3.985800
921.032150	4.185200
918.705700	4.322600
923.667117	4.030600
923.370500	4.069700
920.875967	4.197100
920.324033	4.257900
922.446917	4.260700
918.374000	4.673600
926.629517	4.205500
924.652667	4.343200
934.309400	3.790400
931.273583	3.999000
930.088933	4.080300
927.622367	4.217500
933.980983	3.846900
928.030667	4.199200
925.830067	4.322500
934.719300	3.874700
928.571233	4.263600
924.272417	4.530700
929.321900	4.271900
931.142650	4.200200
931.740400	4.143200
932.330133	4.125300
937.848300	3.806900
927.763817	4.669000
939.392683	4.038300
933.194533	4.435500
935.684067	4.324000
942.855017	3.869800
938.147100	4.183400
932.175250	4.557200
930.122267	4.696000
936.867967	4.450900
944.822150	4.108400
942.251317	4.292200
944.015417	4.195600
945.011800	4.171400
949.064683	3.973500
940.448867	4.504000
942.300633	4.421400
946.033167	4.205500
934.904050	4.882700
937.877800	4.728200
941.989950	4.504700
941.451983	4.555500
946.547050	4.256900
936.643667	4.863400
946.989733	4.289400
943.172217	4.505800
949.962450	4.418300
953.702483	4.290600
953.538950	4.324100
953.025550	4.360700
955.037850	4.223000
961.868083	3.826800
959.502933	3.996600
958.094467	4.071700
947.042567	4.942600
961.672183	4.168500
967.517583	3.806100
961.876917	4.156300
956.612233	4.460700
964.156817	4.032100
967.657033	3.833100
967.835983	3.809100
971.057533	3.670500
968.583567	4.061200
967.565283	4.135500
969.204717	4.042900
965.495333	4.278900
974.143167	3.758200
972.456583	3.883800
971.810650	3.906500
966.402100	4.245200
967.447900	4.464200
965.794533	4.599600
978.513433	3.833100
974.059900	4.106900
978.462683	3.995700
971.304167	4.431400
968.312600	4.616600
973.995417	4.274200
965.074717	4.903900
967.994567	4.813900
974.354883	4.464900
981.825117	4.000600
978.911200	4.171400
976.103000	4.358600
976.215983	4.359000
975.654767	4.413100
969.989283	4.729200
970.754667	4.696900
976.088900	4.557800
983.259417	4.304800
977.560050	4.662200
977.645367	4.679500
981.802683	4.444500
987.792650	4.051100
980.186067	4.530700
986.730783	4.157100
985.415500	4.246400
984.037167	4.594600
984.533283	4.590300
987.134833	4.440600
989.793317	4.276300
991.965333	4.299900
989.767750	4.448600
996.862050	4.058000
992.136850	4.309700
991.513533	4.401000
1000.471283	3.888000
994.267417	4.296400
996.347767	4.167700
983.768600	4.920800
984.695283	4.907100
996.339000	4.273700
993.346617	4.436800
991.283033	4.574700
993.750467	4.446700
994.777867	4.564900
1004.147033	4.190100
1004.080783	4.185900
1003.699617	4.191100
1012.027383	3.711600
1009.257367	3.883000
1004.340883	4.188900
1007.339733	4.201200
1001.148150	4.588400
994.038383	5.039100
1001.160117	4.637500
1000.580550	4.675100
1003.496033	4.529400
997.035950	4.928000
1000.107133	4.745400
1003.121400	4.573700
1000.712483	4.713600
1005.818083	4.695900
1003.813933	4.896600
1001.924750	5.034200
1006.849483	4.756500
1004.298133	4.929300
1004.011950	4.936700
1014.415117	4.337500
1013.256467	4.420000
1017.067383	4.202700
1012.383917	4.433200
1006.765467	4.918000
1015.743800	4.605800
1017.515117	4.520200
1016.747667	4.576300
1016.451183	4.594500
1024.797467	4.090900
1015.732950	4.632800
1016.180950	4.610300
1019.838067	4.447600
1020.257583	4.683600
1033.608983	3.902100
1021.626417	4.609000
1017.481017	4.861900
1023.811617	4.665700
1027.605183	4.455900
1024.539083	4.635600
1026.930500	4.487300
1026.673317	4.611400
1021.994800	4.962500
1023.641317	4.854400
1023.573383	4.861500
1030.754483	4.456500
1039.591100	3.937400
1031.265050	4.592600
1033.471483	4.469700
1031.671217	4.585900
1030.803617	4.651600
1029.370000	4.767200
1034.167967	4.549300
1038.773800	4.256000
1032.318867	4.651600
1040.020667	4.195000
1036.555300	4.394300
1028.840067	4.924000
1032.396200	4.948700
1037.723883	4.657200
1034.069000	4.890500
1039.501417	4.606000
1045.211317	4.417600
1044.130833	4.494000
1041.519617	4.632100
1033.931033	5.090100
1042.564000	4.748000
1045.334117	4.569100
1051.888083	4.171500
1042.129583	4.766700
1053.020667	4.277200
1053.468250	4.242800
1047.250333	4.614000
1051.603050	4.377500
1056.377283	4.236900
1052.686667	4.457200
1049.446450	4.671500
1047.714700	4.787000
1051.837683	4.589400
1055.191533	4.485900
1057.867717	4.329400
1051.672500	4.709000
1055.148733	4.502700
1057.627100	4.343900
1054.712017	4.520200
1048.524350	4.904600
1049.724983	4.832100
1043.564883	5.208300
1058.066217	4.374100
1051.213233	4.907700
1061.687033	4.293900
1057.076967	4.606600
1055.308067	4.726000
1059.762567	4.488700
1058.853767	4.542100
1055.557467	4.764400
1058.222283	4.600200
1068.770567	4.195000
1062.644533	4.572600
1060.455933	4.699800
1062.452233	4.592400
1065.743733	4.566300
1062.098817	4.802800
1058.484283	5.033400
1067.497550	4.507100
1072.570367	4.387300
1077.104083	4.117200
1062.417283	4.984200
1069.646300	4.559300
1067.878983	4.727700
1074.574717	4.343200
1074.506200	4.352300
1073.147933	4.434300
1072.913733	4.459500
1073.561633	4.438200
1069.202467	4.792900
1066.931350	5.069600
1073.120867	4.782400
1071.772700	4.902800
1070.840767	4.946800
1074.258800	4.751000
1074.752550	4.729100
1071.757083	4.910100
1078.036117	4.538500
1089.220550	4.079600
1079.917450	4.637000
1084.727050	4.352300
1078.498217	4.738900
1078.057533	4.887300
1076.529533	5.043900
1086.865283	4.452000
1079.532167	4.906600
1087.411167	4.387300
1080.771583	4.816500
1079.456733	4.908300
1075.938467	5.104600
1076.270867	5.230000
1073.515767	5.442700
1085.274083	4.801800
1085.580033	4.797600
1084.872150	4.981700
1092.631367	4.552900
1096.753967	4.318600
1093.029667	4.534600
1088.741000	4.850600
1090.898317	4.858300
1096.660500	4.519400
1091.781617	4.809100
1092.909950	4.753100
1095.193467	4.620400
1097.000617	4.501600
1095.428450	4.799900
1094.249500	4.874600
1102.109833	4.427100
1094.505400	4.883600
1102.004950	4.558400
1101.247783	4.649100
1100.259450	4.731800
1093.861400	5.122400
1090.823650	5.315300
1100.295750	4.773200
1103.140967	4.616200
1093.683667	5.214700
1101.818400	5.055200
1098.182433	5.282100
1113.790383	4.371600
1108.843667	4.660000
1115.415617	4.322500
1111.244267	4.621600
1107.763800	4.844600
1106.709733	4.897200
1111.468033	4.622100
1115.698883	4.366500
1113.929767	4.461700
1114.450050	4.423100
1109.375017	4.818700
1112.607150	4.882400
1114.196283	4.787700
1112.663617	4.910800
1112.331050	4.930700
1113.829767	4.844500
1106.551633	5.304300
1113.533867	4.915300
1113.006133	4.939800
1114.492133	4.995900
1120.129800	4.685600
1113.709267	5.088400
1119.530800	4.740500
1114.856250	5.083100
1115.363433	5.087400
1121.662900	4.740500
1121.008117	4.818400
1123.528050	4.689500
1114.773550	5.235200
1131.800317	4.499200
1121.272433	5.114400
1127.670167	4.782400
1124.695350	4.969400
1128.720050	4.839500
1131.055167	4.737400
1135.021800	4.532300
1124.775333	5.181000
1129.472283	4.900800
1131.770300	4.772600
1133.010317	4.713400
1136.198017	4.550200
1130.174917	4.926400
1130.042667	4.946200
1128.479283	5.077800
1142.675717	4.509700
1139.091583	4.736400
1132.985900	5.161700
1134.543333	5.082900
1142.484350	4.660400
1139.950883	4.804200
1140.786850	4.740500
1145.636917	4.452700
1146.966900	4.514000
1142.234167	4.818700
1143.045517	4.843900
1137.818883	5.168100
1146.794667	4.651000
1138.592267	5.139700
1140.661933	5.173200
1139.288967	5.258800
1150.046750	4.607600
1145.072867	4.933600
1147.017567	4.894600
1145.519367	5.058400
1143.252033	5.265000
1145.695233	5.120100
1143.564583	5.275500
1141.662333	5.390100
1148.065583	5.028900
1148.557217	5.140300
1147.708133	5.189100
1151.070550	5.031800
1155.937217	4.747000
1157.930033	4.623900
1156.755783	4.682400
1161.887400	4.525400
1169.100317	4.084000
1150.323233	5.202000
1157.878717	4.751800
1167.428133	4.299900
1162.406133	4.612200
1164.989667	4.488700
1156.337000	5.034200
1163.511783	4.633200
1162.432283	4.708200
1168.031367	4.510300
1162.478683	4.887900
1167.850183	4.602300
1168.285117	4.569400
1164.550533	4.792200
1169.596717	4.485400
1166.165217	4.732300
1164.007333	4.970700
1171.423050	4.504400
1163.999983	4.965300
1167.020617	4.867300
1170.829733	4.745700
1167.481950	4.954100
1168.129317	4.980100
1164.758983	5.187000
1176.064583	4.532400
1173.878950	4.677500
1175.254967	4.722100
1170.499450	5.031200
1168.215483	5.203200
1177.094850	4.679600
1177.605583	4.652100
1175.217100	4.789100
1171.357383	5.204700
1175.339883	4.993800
1169.434750	5.338400
1169.388217	5.370700
1174.132500	5.222300
1171.502250	5.439800
1175.290633	5.313900
1165.949050	5.865200
1176.790567	5.259700
1181.825233	4.983000
1179.551733	5.204100
1184.095633	5.012100
1192.971767	4.509700
1191.837267	4.583800
1189.246300	4.730000
1179.829767	5.280400
1176.063600	5.549000
1185.787700	5.024900
1185.910783	5.040300
1181.982050	5.333600
1182.167083	5.356800
1185.529250	5.158100
1180.897367	5.453800
1187.253150	5.242700
1182.841250	5.516000
1196.895217	4.700800
1190.195267	5.109400
1192.045233	5.123400
1195.162950	4.951700
1186.138733	5.499900
1179.778300	5.904200
1193.206933	5.163600
1191.772733	5.247300
1192.342583	5.343600
1192.887617	5.361700
1199.667400	4.994900
1204.102567	4.751500
1205.559467	4.653700
1194.511400	5.298500
1194.584383	5.366400
1194.497350	5.483900
1197.249850	5.326400
1199.670783	5.190000
1195.507433	5.513700
1198.968050	5.423600
1202.382000	5.228300
1206.326800	5.063600
1202.478900	5.312900
1195.403600	5.732600
1203.211817	5.278300
1203.115300	5.372000
1206.619817	5.192200
1206.650633	5.251500
1206.391417	5.274100
1207.120000	5.229200
1204.791133	5.381100
1209.598700	5.228300
1216.190000	4.840100
1203.942600	5.571800
1211.544783	5.145000
1215.028083	4.960800
1206.061950	5.520200
1205.715600	5.578700
1218.790333	4.859100
1213.020333	5.223000
1216.875000	4.994300
1215.016067	5.139100
1214.323367	5.291200
1219.280833	5.010600
1228.639883	4.491300
1219.257183	5.049900
1221.271483	4.918800
1218.695733	5.085600
1217.155567	5.249800
1218.272500	5.200100
1219.705617	5.147200
1211.110550	5.672000
1224.777683	5.000100
1214.223117	5.669800
1227.383300	4.984400
1223.686650	5.217800
1221.895950	5.334200
1219.754917	5.487700
1226.546683	5.213400
1226.744067	5.238400
1227.451400	5.216000
1227.229583	5.244000
1222.468333	5.553000
1230.969250	5.033600
1221.345767	5.747500
1228.113683	5.346900
1224.807533	5.569200
1226.082133	5.499000
1231.602900	5.225900
1230.801950	5.379800
1225.251133	5.725800
1226.348133	5.727600
1225.081117	5.829700
1230.276733	5.529000
1232.099133	5.423100
1230.713400	5.528300
1227.125283	5.769300
1229.659417	5.771200
1225.782800	6.063200
1231.175917	5.759200
1231.737800	5.746700
1240.676683	5.223600
1239.563733	5.280000
1240.093417	5.415100
1245.504783	5.136300
1241.862617	5.358700
1240.017400	5.487200
1251.734033	4.787700
1243.505617	5.305900
1251.055417	4.879600
1241.406217	5.440000
1240.748667	5.737000
1250.752650	5.207900
1249.964533	5.259300
1247.575733	5.419200
1256.846767	4.876000
1251.894250	5.153900
1254.288133	5.001300
1249.857750	5.248400
1252.645100	5.129600
1254.784683	5.088300
1249.375667	5.450800
1252.255683	5.305800
1248.380533	5.559600
1257.909167	5.053900
1251.298300	5.447000
1259.447100	5.001800
1255.295033	5.254500
1252.396767	5.414500
1257.903367	5.098600
1251.481583	5.608500
1259.207900	5.154500
1253.707383	5.487900
1256.804600	5.323700
1260.803967	5.137000
1257.853750	5.295800
1259.145750	5.261300
1253.431650	5.611100
1258.875917	5.604100
1261.711700	5.466200
1258.306733	5.682300
1262.621750	5.437100
1262.206683	5.550300
1265.243833	5.488800
1262.386500	5.663600
1266.712983	5.428200
1271.470550	5.174900
1272.108733	5.117100
1267.068583	5.501700
1277.102833	5.064300
1273.644867	5.281600
1270.894983	5.471100
1271.583883	5.457600
1278.318550	5.184500
1284.101150	4.871600
1282.889867	4.945000
1277.650683	5.224500
1279.061100	5.165300
1276.019283	5.357400
1273.180300	5.738300
1274.467483	5.683800
1275.633400	5.633900
1286.882983	4.973700
1277.470300	5.543000
1275.781583	5.625600
1276.882683	5.751000
1279.296267	5.611900
1289.669767	5.010400
1281.218867	5.519200
1281.006667	5.618800
1281.939000	5.701700
1284.930433	5.535600
1283.590067	5.605000
1284.349300	5.570000
1289.412367	5.293300
1290.678467	5.321800
1294.144283	5.219100
1281.783800	5.967800
1286.496133	5.698800
1292.130533	5.393100
1288.143283	5.770500
1298.172550	5.179100
1296.749250	5.284100
1294.244217	5.431900
1290.613183	5.669700
1297.634567	5.250400
1291.255733	5.664900
1293.403133	5.548200
1293.333367	5.553100
1292.347117	5.616400
1292.345417	5.889100
1297.421633	5.721300
1312.813267	4.803400
1308.803967	5.032300
1304.131833	5.295600
1306.041600	5.199800
1297.611967	5.843500
1305.539850	5.465900
1303.395250	5.621600
1301.214733	5.752800
1301.769067	5.716000
1298.860400	5.907200
1303.768417	5.713900
1309.324017	5.542600
1303.610383	5.898900
1304.575600	5.845400
1308.373617	5.629300
1311.690117	5.574400
1313.825633	5.428800
1310.795983	5.589000
1312.371467	5.485300
1313.292183	5.598000
1317.180250	5.361200
1315.841783	5.448900
1313.173550	5.613200
1312.070417	5.755000
1302.353300	6.364700
1311.729783	5.841300
1308.015017	6.086500
1304.618433	6.298200
1307.461483	6.134100
1312.976567	5.833000
1319.852400	5.431100
1323.483183	5.427600
1324.167517	5.471500
1316.732517	5.913100
1310.945183	6.255900
1321.987267	5.630500
1324.884283	5.461200
1318.853183	5.826600
1316.140000	6.017900
1322.037450	5.809700
1324.414617	5.855200
1322.449633	6.000900
1324.737933	5.867400
1324.204933	5.900100
1336.945433	5.289900
1329.211233	5.776200
1325.042817	6.084100
1328.677983	5.894400
1328.314833	5.910900
1327.399583	5.968800
1326.479033	6.105900
1335.159200	5.600600
1329.995567	5.899000
1335.534183	5.598000
1324.897500	6.234200
1329.060533	5.995200
1331.397667	5.856100
1333.314067	5.746900
1333.552350	5.992100
1340.546767	5.656600
1339.231367	5.755900
1341.204283	5.633400
1344.438517	5.433700
1343.637000	5.488400
1345.010367	5.409700
1339.449500	5.733200
1337.534933	6.146100
1341.622117	5.988100
1341.946767	5.973400
1342.320133	5.944200
1347.111900	5.680100
1347.165633	5.731500
1347.202967	5.732800
1337.924000	6.332300
1338.159000	6.356600
1342.481067	6.114700
1342.061450	6.139100
1353.490100	5.530100
1348.395617	5.865100
1343.360717	6.180100
1349.655533	5.817900
1354.613750	5.529800
1350.059983	5.829900
1351.679800	5.754500
1353.812117	5.631400
1354.612217	5.706400
1345.241017	6.318400
1355.344450	5.779700
1355.003067	5.825500
1362.648950	5.380400
1357.565800	5.700800
1353.228583	5.983200
1363.914467	5.353000
1361.416167	5.779000
1359.073983	5.949600
1368.427600	5.423000
1368.944167	5.409700
1364.627650	5.695100
1358.912450	6.182300
1360.297300	6.131000
1369.007167	5.595400
1371.429517	5.464300
1366.610700	5.773700
1362.279467	6.063100
1368.930517	5.855500
1364.669683	6.147900
1368.387117	5.955700
1364.115783	6.217800
1363.670350	6.273800
1370.980250	5.826500
1375.849067	5.545900
1365.256367	6.180400
1376.642100	5.762300
1374.174533	5.970600
1366.558633	6.439800
1373.077283	6.064800
1387.915933	5.164800
1379.932633	5.658300
1375.238800	6.123200
1385.135533	5.610000
1376.356400	6.141500
1376.496117	6.139600
1378.720467	6.024400
1382.781783	5.794200
1379.636083	5.998200
1376.610383	6.198600
1380.280033	6.038400
1387.570133	5.752200
1390.501767	5.577400
1377.003050	6.378500
1388.342950	5.715200
1386.682017	5.813500
1387.079583	5.769900
1393.379167	5.397700
1383.920250	6.017000
1399.522300	5.359400
1396.203567	5.577400
1398.518150	5.446400
1399.671733	5.355600
1384.305183	6.488400
1392.652217	5.977600
1394.993117	5.882500
1386.850667	6.407800
1381.258033	6.877800
1390.486083	6.372000
1391.650767	6.327700
1396.035767	6.104800
1398.128000	5.988800
1400.797000	5.829800
1401.633700	5.780900
1398.573283	5.953800
1406.728417	5.641900
1412.440517	5.413000
1398.685000	6.236000
1402.446500	6.024800
1405.492617	5.842600
1400.995017	6.095200
1391.184300	6.703700
1401.159600	6.151400
1397.257567	6.408400
1401.601800	6.445100
1400.163583	6.576900
1404.664617	6.352600
1402.436783	6.507600
1403.027767	6.536200
1413.750917	5.905600
1406.016967	6.380800
1407.856833	6.281700
1416.257717	5.782900
1414.733433	5.861700
1406.354417	6.472000
1415.883167	5.944000
1410.958550	6.226100
1411.373783	6.202800
1411.338233	6.219600
1415.387300	5.996000
1415.087217	6.013600
1416.520150	5.930300
1415.128150	6.078800
1403.179400	6.898100
1411.054100	6.466400
1416.234400	6.194300
1417.501733	6.143700
1415.705533	6.294300
1421.696033	5.951700
1409.378417	6.694900
1424.987600	5.952500
1433.265133	5.638500
1427.396933	6.008700
1439.146333	5.354100
1433.641000	5.702600
1428.764200	6.009200
1428.998883	5.995500
1432.300900	5.824100
1432.511467	5.815300
1430.710700	5.936900
1433.782000	5.766200
1433.457817	6.053800
1437.894800	5.849900
1435.898650	5.961500
1430.090583	6.330600
1444.837333	5.497800
1442.084850	5.653700
1439.352483	5.809500
1443.324683	5.552400
1438.371933	6.036000
1440.488483	6.080700
1446.369683	5.731800
1443.498033	5.877300
1448.954933	5.565900
1439.990550	6.109100
1435.552800	6.392600
1429.548433	6.765000
1439.400433	6.331200
1445.206883	6.176400
1439.048783	6.554400
1443.651967	6.264400
1444.801850	6.201200
1445.208633	6.181800
1445.590250	6.159800
1442.057833	6.381600
1438.682200	6.593000
1441.029383	6.481800
1433.851917	6.938500
1441.684217	6.648400
1444.568433	6.541500
1450.886133	6.206400
1448.777783	6.351600
1451.945667	6.174100
1451.047600	6.230000
1449.619600	6.314900
1456.877383	5.892300
1460.640067	5.870500
1459.807133	6.067500
1457.246367	6.254500
1453.901933	6.461400
1451.862167	6.595000
1462.191033	5.985900
1458.634367	6.185800
1465.069683	5.823600
1458.459817	6.337000
1464.098233	6.208500
1463.809617	6.258700
1465.678067	6.142600
1463.985033	6.241800
1464.922117	6.203500
1465.319250	6.217100
1456.982950	6.704000
1459.132200	6.592400
1460.885417	6.522700
1457.952617	6.736600
1463.612850	6.729200
1466.248717	6.624700
1471.621017	6.333100
1476.521533	6.050100
1465.665517	6.723100
1468.853567	6.553000
1483.066200	5.697500
1470.657150	6.455900
1480.210650	6.073400
1480.361033	6.188100
1474.679417	6.551500
1471.294883	6.778200
1481.147533	6.197100
1475.585683	6.536400
1478.532983	6.353700
1483.770333	6.056700
1478.115017	6.414100
1477.014867	6.490600
1480.324133	6.343800
1475.206183	6.811500
1477.158083	6.724500
1470.991850	7.120400
1476.848683	6.806100
1483.444300	6.576200
1481.325433	6.765000
1487.483400	6.421700
1482.746433	6.698100
1489.425100	6.333800
1482.162183	6.800700
1491.853450	6.399200
1489.025683	6.610500
1498.626550	6.030200
1486.744783	6.752400
1482.438967	7.155400
1494.627333	6.485700
1489.634283	6.815400
1489.223050	6.851600
1482.099183	7.281900
1484.107167	7.177600
1480.409267	7.522900
1497.571283	6.621900
1495.994767	6.741100
1496.353233	6.720600
1502.020950	6.392600
1501.960350	6.405200
1498.406767	6.686800
1499.350200	6.773300
1498.962200	6.852200
1507.218633	6.369300
1500.405100	6.792500
1496.050450	7.201400
1503.034700	6.830600
1507.099383	6.604500
1507.920833	6.543900
1506.027383	6.672300
1498.143217	7.146400
1510.488983	6.619500
1505.926083	6.915900
1511.904017	6.580300
1510.883967	6.640600
1518.200933	6.304200
1515.285017	6.554500
1501.616083	7.402800
1506.290517	7.122400
1509.622467	6.936700
1510.183650	6.915200
1508.390250	7.125200
1507.198567	7.330300
1509.852017	7.179400
1512.331617	7.027300
1506.895383	7.367700
1519.225517	6.685300
1520.745367	6.592000
1517.535933	6.795900
1515.479367	6.937600
1524.480717	6.547600
1526.740633	6.428700
1525.921600	6.478700
1517.023133	6.999600
1521.728533	6.899400
1529.808700	6.430100
1525.930967	6.645700
1527.304250	6.559700
1526.243367	6.636700
1526.808583	6.610800
1525.972933	6.654900
1523.706033	6.782700
1530.059017	6.401200
1528.057100	6.520700
1516.758917	7.335700
1529.768033	6.612000
1525.799133	6.872700
1526.530933	6.862200
1539.276150	6.282500
1534.497450	6.587900
1537.598767	6.427900
1530.817450	6.841700
1536.005750	6.604400
1543.074850	6.293000
1547.848167	6.026500
1536.626133	6.707700
1538.142667	6.649600
1538.032450	6.705200
1551.732500	5.897900
1533.580167	6.986200
1540.817550	6.559400
1543.773083	6.384300
1537.878967	6.747100
1539.272233	6.817500
1547.243117	6.368200
1546.135633	6.456600
1542.533633	6.678600
1539.749400	6.874100
1539.601483	6.897900
1539.185600	6.945200
1535.688717	7.204300
1545.821650	6.941300
1547.571533	6.878700
1543.546067	7.159900
1551.301033	6.729600
1552.132000	6.842000
1555.144817	6.697900
1556.711733	6.622200
1562.601233	6.273300
1556.111417	6.729100
1555.890300	6.848300
1551.778100	7.094000
1559.848883	6.623400
1552.942500	7.053500
1553.899550	7.002200
1560.484817	6.661600
1562.314650	6.724700
1560.752733	6.835500
1561.927050	6.752600
1564.390333	6.622200
1559.433150	6.911900
1559.755817	6.916300
1558.629600	6.989000
1557.648133	7.062000
1556.107517	7.310500
1562.011517	7.005700
1560.159617	7.162300
1562.668467	7.021300
1565.785733	6.995100
1560.362667	7.378000
1569.895850	6.911900
1571.021883	6.849000
1573.332633	6.725700
1571.568417	6.831100
1576.573533	6.653400
1588.586350	5.976200
1570.577900	7.072100
1578.291933	6.630900
1579.468767	6.569500
1580.197983	6.553800
1586.195783	6.249300
1572.671333	7.174800
1576.114150	6.997400
1582.326483	6.639900
1581.286867	6.742000
1581.184700	6.890300
1589.038117	6.444700
1583.870550	6.783200
1585.187750	6.695600
1583.704767	6.776800
1575.986867	7.240300
1585.728133	6.834300
1581.854267	7.087600
1575.102050	7.511000
1576.561933	7.436400
1589.491600	6.779600
1587.073850	7.008800
1586.467017	7.054600
1588.082783	6.988800
1585.520933	7.144200
1591.191867	6.816100
1595.380333	6.665700
1595.401933	6.721800
1596.323250	6.728300
1598.261600	6.661400
1589.267100	7.195100
1595.021250	6.880400
1600.605333	6.630900
1599.011583	6.814200
1596.599950	6.981800
1602.493100	6.639800
1599.757750	6.802100
1601.194983	6.740400
1600.836867	6.769900
1586.367767	7.684900
1590.932100	7.445300
1595.282883	7.209900
1598.514317	7.027300
1601.663717	6.927100
1596.493500	7.249700
1596.960150	7.247600
1600.739067	7.040800
1600.376983	7.228800
1599.916400	7.303100
1603.371850	7.165400
1606.810867	6.959800
1598.993333	7.455600
1602.299900	7.269800
1608.389467	7.012000
1603.587800	7.367000
1611.772100	6.949700
1610.168300	7.067300
1617.380167	6.662800
1618.161517	6.615100
1615.152300	6.859400
1623.942400	6.371000
1617.851750	6.723800
1615.720200	6.873200
1614.783650	6.990200
1620.078433	6.802800
1617.108067	7.016800
1620.461217	6.860800
1614.065767	7.294000
1613.047850	7.424000
1616.805767	7.233100
1611.116700	7.572200
1621.616483	6.960000
1614.908933	7.528200
1622.328600	7.098500
1623.874917	7.026100
1618.838700	7.358600
1621.098283	7.351800
1620.105367	7.462000
1627.109817	7.108600
1622.579100	7.399700
1626.965483	7.146900
1631.762367	6.864400
1636.136583	6.669600
1633.702733	6.882600
1633.758483	6.948600
1635.022233	6.842400
1630.554967	7.101400
1631.708333	7.035900
1622.498117	7.596400
1629.841850	7.258100
1633.457183	7.029900
1627.230867	7.420300
1633.327433	7.091100
1628.319467	7.534900
1636.684550	7.057100
1637.371333	7.074000
1641.448950	6.854600
1636.216167	7.168000
1627.646167	7.671700
1644.282483	6.817500
1642.508367	6.944200
1642.193433	6.960900
1644.631633	6.823800
1641.185183	7.185300
1644.400517	7.050700
1644.056533	7.136400
1650.596250	6.751100
1641.529600	7.276400
1636.485700	7.592000
1639.471233	7.482600
1640.954383	7.437600
1630.486850	8.118200
1652.157733	6.878700
1645.520467	7.290400
1643.429150	7.417400
1650.646050	7.062500
1647.140100	7.391600
1649.798000	7.258700
1647.748733	7.434300
1650.072883	7.318800
1649.268000	7.409300
1654.807300	7.115000
1661.714900	6.848300
1655.813317	7.220500
1662.227917	6.904900
1659.352350	7.064000
1670.322233	6.422400
1659.027250	7.098500
1665.436817	6.856600
1659.443817	7.241800
1659.014950	7.266800
1666.734017	6.854500
1660.838450	7.250600
1663.057983	7.153200
1666.496617	7.058800
1663.961133	7.208700
1670.160600	6.862100
1662.397550	7.311200
1664.148767	7.294000
1660.855183	7.567500
1662.393250	7.512800
1673.732067	6.892300
1667.571267	7.258900
1665.382650	7.397900
1669.514150	7.187600
1667.760017	7.440700
1667.209550	7.482200
1665.663300	7.653500
1673.235483	7.202100
1667.527300	7.555700
1671.903167	7.310500
1672.213917	7.474900
1674.256217	7.363000
1669.428533	7.662900
1670.460417	7.593700
1679.211983	7.152300
1674.414950	7.482200
1684.850917	6.867700
1682.807900	6.980900
1678.059567	7.272100
1681.835867	7.068700
1688.388400	6.671300
1677.920433	7.305300
1678.003600	7.428200
1683.961767	7.279000
1685.558583	7.208400
1681.007317	7.504900
1677.323200	7.784300
1674.328850	7.986800
1678.895933	7.740600
1690.772683	7.038900
1686.732817	7.339000
1688.225350	7.357400
1685.682850	7.531700
1687.144233	7.436400
1682.676450	7.715300
1685.066117	7.610500
1686.859117	7.521100
1692.755800	7.172600
1694.953267	7.056100
1681.789267	8.144500
1692.373017	7.528000
1693.535917	7.477000
1694.753683	7.410600
1704.756567	7.037800
1703.616400	7.116800
1696.804800	7.530200
1695.798550	7.610300
1696.896667	7.694200
1704.916633	7.282800
1711.920333	6.864300
1707.828100	7.105700
1703.834633	7.356300
1702.840417	7.404400
1704.680283	7.285500
1703.198617	7.392100
1710.476167	6.977500
1702.412567	7.466800
1706.554000	7.371500
1704.141533	7.754400
1706.635967	7.617400
1706.822450	7.621700
1716.440850	7.091000
1713.794683	7.397700
1714.955533	7.344000
1707.492317	7.804300
1707.771067	7.801600
1713.683900	7.596200
1715.686717	7.513300
1721.348350	7.217300
1716.740317	7.479100
1717.430900	7.464200
1720.053467	7.327000
1718.252900	7.559900
1723.237317	7.296700
1716.340283	7.691400
1722.222300	7.357100
1718.784067	7.547200
1716.602467	7.664800
1727.462450	7.044800
1725.958267	7.130500
1718.474767	7.568800
1710.562200	8.047400
1724.297200	7.519700
1729.098317	7.371100
1729.687900	7.378700
1727.641050	7.495400
1734.691367	7.087600
1734.008383	7.132800
1729.247883	7.459500
1735.006067	7.154500
1725.408867	7.781800
1728.984483	7.628700
1725.210550	7.877000
1727.339500	7.790600
1729.208600	7.700000
1728.583800	7.778600
1732.089350	7.571300
1728.705100	7.793600
1735.740967	7.384600
1743.623633	6.924300
1735.638267	7.422700
1736.992817	7.342600
1733.060383	7.584000
1734.853417	7.792300
1738.696817	7.635100
1749.971017	6.974800
1743.256467	7.395700
1742.495083	7.456200
1745.782483	7.275600
1749.220700	7.186700
1745.394683	7.404900
1741.799950	7.646900
1737.647517	7.915000
1743.085167	7.729300
1742.061900	7.834400
1746.063767	7.641400
1759.167250	6.860600
1747.367867	7.556200
1749.367700	7.439000
1742.456233	7.933800
1748.939367	7.708000
1755.502550	7.317500
1752.640017	7.508200
1756.958050	7.275800
1753.242200	7.502000
1756.725933	7.282500
1751.508667	7.606900
1756.958417	7.306300
1754.774017	7.430800
1756.534250	7.335200
1757.968833	7.422000
1754.271533	7.673700
1755.967550	7.718300
1752.295550	7.982600
1760.138483	7.526100
1758.826083	7.600500
1754.633383	7.864500
1751.931517	8.035000
1759.397733	7.739100
1759.423567	7.757800
1764.835517	7.476400
1757.019817	7.939300
1767.653200	7.429400
1762.705433	7.717800
1767.790183	7.438500
1766.571217	7.525600
1769.205633	7.480800
1766.688017	7.711600
1767.090483	7.719600
1769.622167	7.576000
1770.439700	7.572800
1769.543667	7.657900
1762.328267	8.125600
1766.732517	8.052700
1772.484833	7.765500
1771.365350	7.841600
1773.960917	7.690600
1770.890233	7.906500
1777.099900	7.550900
1777.525750	7.516100
1771.122217	7.900600
1766.253867	8.356600
1772.006400	8.039600
1774.551017	7.930000
1778.041933	7.746300
1779.610917	7.675000
1779.401417	7.676500
1782.521533	7.501200
1777.399267	7.821400
1781.564233	7.775100
1783.869117	7.769200
1776.973233	8.213400
1783.898450	7.834400
1784.198817	7.823800
1786.412800	7.739300
1789.097350	7.582400
1791.877883	7.412700
1792.490317	7.444300
1792.232083	7.710600
1793.980217	7.633300
1789.841433	7.903500
1796.139850	7.564400
1796.169950	7.622900
1793.612117	7.816300
1792.664933	7.913700
1790.544183	8.029800
1797.387450	7.634000
1793.839783	7.871700
1797.378967	7.823800
1801.557750	7.618700
1798.081917	7.841800
1794.721000	8.086100
1792.744933	8.259900
1798.386117	7.921900
1795.622983	8.116800
1799.034717	7.926700
1799.087867	8.158300
1807.790083	7.775400
1797.382233	8.414100
1803.487083	8.067600
1802.793267	8.137300
1804.303333	8.067000
1802.949800	8.149700
1804.808567	8.066800
1817.484167	7.462600
1818.279117	7.572100
1817.910733	7.602600
1809.680150	8.120300
1811.241100	8.053400
1813.797333	8.045400
1809.677117	8.317600
1817.491750	7.835000
1816.020083	7.942200
1823.539367	7.494100
1816.991667	7.870900
1819.953433	7.872900
1826.348200	7.539500
1821.394400	7.849700
1827.182450	7.507400
1818.247400	8.048300
1823.325433	7.746900
1824.053533	7.862700
1817.883283	8.299200
1830.826633	7.557000
1827.539600	7.752800
1829.093983	7.659900
1823.028167	8.012200
1830.046000	7.705100
1829.182700	7.860200
1827.137533	7.998000
1828.811383	7.924200
1831.170217	7.784200
1828.250550	7.976300
1832.310033	7.736100
1829.583533	7.893000
1827.645717	8.143300
1831.370367	8.130100
1833.989067	7.983400
1835.711450	7.905500
1833.726150	8.023100
1824.088367	8.611300
1827.924000	8.378900
1828.248383	8.420100
1830.051800	8.336300
1832.947183	8.444700
1833.163583	8.453100
1844.115967	7.819900
1839.725317	8.096500
1836.699067	8.423800
1842.505333	8.118900
1835.064217	8.558800
1838.864067	8.373700
1836.339883	8.553600
1847.492600	7.901300
1845.867500	8.176700
1849.575800	8.006600
1850.198500	7.963100
1846.799517	8.174200
1848.881900	8.058200
1842.973050	8.415800
1842.886333	8.422500
1849.255017	8.051200
1846.404733	8.263500
1849.986083	8.152200
1852.722917	8.009200
1855.220133	7.882200
1850.611267	8.173300
1856.471683	7.826100
1860.702550	7.569500
1847.726233	8.358900
1854.845250	7.966100
1861.213117	7.973500
1855.280967	8.345500
1863.892917	7.854100
1863.106700	7.907600
1865.090467	7.946200
1858.941033	8.357700
1862.280250	8.170700
1869.224450	7.775600
1862.558967	8.173900
1865.327417	8.039800
1858.223283	8.535900
1864.692950	8.202800
1860.409100	8.457200
1861.962417	8.391700
1868.934867	7.981900
1862.134600	8.430200
1865.773067	8.250400
1863.199983	8.391600
1874.271300	7.857500
1870.859100	8.277500
1866.728533	8.546700
1877.596767	7.915900
1885.152633	7.467900
1873.421200	8.164400
1876.495217	8.046400
1876.356917	8.211400
1870.049267	8.618800
1865.609800	8.933600
1873.930700	8.456300
1873.635917	8.512300
1871.873950	8.642000
1882.019917	8.123500
1882.276467	8.146900
1883.818867	8.061100
1883.684533	8.079300
1876.083767	8.552500
1874.730750	8.647700
1873.717883	8.724000
1873.354100	8.760500
1886.051850	8.279300
1885.965350	8.343800
1885.727583	8.420400
1890.955000	8.115500
1891.612783	8.093100
1888.988150	8.252300
1890.513167	8.216500
1890.526233	8.316900
1895.243167	8.049400
1896.593767	7.985800
1889.947783	8.433900
1884.318450	8.918600
1893.269200	8.402300
1903.404000	7.887500
1898.639733	8.176800
1895.329733	8.359500
1895.725117	8.337700
1894.908100	8.384000
1897.921617	8.225200
1895.809767	8.348500
1891.319783	8.635500
1898.480133	8.370000
1902.680717	8.173300
1894.951933	8.650200
1899.857367	8.381200
1910.177000	7.806200
1903.504767	8.205100
1910.419267	7.982500
1901.066317	8.623000
1906.249450	8.369300
1909.588517	8.203300
1907.015133	8.388600
1911.362950	8.139800
1909.804867	8.244100
1913.132550	8.049800
1913.035483	8.076300
1911.607950	8.160800
1921.380033	7.681200
1912.799850	8.423600
1916.783967	8.204800
1919.476100	8.067500
1916.829717	8.226400
1922.521067	7.890100
1913.993367	8.425300
1914.546883	8.399400
1914.068300	8.462300
1921.263350	8.033600
1921.306600	8.037500
1917.869300	8.515700
1917.289400	8.617700
1923.536350	8.354000
1918.844683	8.656500
1922.916600	8.437400
1925.801500	8.259200
1934.076950	7.770800
1932.317783	7.884000
1929.685100	8.223800
1925.728100	8.503100
1929.470017	8.296600
1930.402550	8.258300
1935.158417	7.981900
1932.396800	8.139200
1934.076317	8.046700
1938.502850	7.773200
1935.670550	8.155400
1940.002150	8.015600
1934.894917	8.314600
1932.427267	8.480200
1929.628850	8.669000
1934.823633	8.379300
1934.411150	8.390300
1933.588400	8.464400
1936.133817	8.376700
1938.949050	8.503400
1938.246417	8.565400
1936.190733	8.695200
1940.437867	8.494600
1938.813667	8.708200
1946.679300	8.279600
1944.145700	8.479100
1936.957783	8.907000
1943.446733	8.533200
1939.320450	8.831600
1937.157700	9.086300
1947.814400	8.485400
1947.791700	8.499800
1949.240567	8.408500
1960.290233	7.716600
1952.319667	8.182900
1952.427783	8.194500
1959.020317	7.778500
1948.469417	8.499400
1953.297650	8.246900
1942.879983	8.886300
1951.625017	8.372500
1957.089250	8.125700
1959.121100	8.074400
1954.821783	8.337000
1952.645350	8.482100
1954.366633	8.402400
1945.495700	8.976200
1951.313483	8.643600
1955.513433	8.412000
1946.328817	8.998000
1955.434400	8.495300
1958.125883	8.463600
1959.482283	8.631600
1952.995450	9.053300
1955.470150	8.930900
1952.272083	9.129000
1959.422783	8.735100
1954.714333	9.037200
1958.804350	8.811800
1965.785033	8.413500
1963.774933	8.868300
1971.967083	8.406000
1970.982700	8.484200
1973.294500	8.363300
1970.385867	8.709400
1967.070067	8.936500
1975.821600	8.443400
1977.271067	8.338000
1969.770600	8.771300
1976.827300	8.372600
1977.735550	8.485400
1984.030383	8.196600
1988.296517	7.945900
1982.316417	8.294500
1974.568450	8.800100
1977.095617	8.619400
1982.635267	8.294500
1980.453800	8.435300
1978.231517	8.647300
1983.835100	8.551100
1994.751533	7.917000
1992.375983	8.051400
1989.097117	8.246500
1980.950867	8.751100
1983.689833	8.600100
1992.852867	8.057500
1985.006783	8.520900
1983.522467	8.782900
1994.206000	8.160200
1987.012867	8.645200
1984.499683	8.846100
1991.515433	8.656200
1997.324233	8.348400
1999.301933	8.250000
1995.513083	8.487900
1993.585100	8.659100
2000.771567	8.254600
2001.743283	8.249400
2002.861833	8.175600
1996.586117	8.558800
1994.045167	8.719900
1995.842167	8.753500
2003.765917	8.402200
1997.107750	8.827400
2000.595933	8.629800
1993.391167	9.092200
1999.944683	8.735100
1995.341883	9.030900
1999.737500	8.808500
2005.467717	8.563600
2008.657867	8.612500
1999.629583	9.192600
2004.872933	8.886000
1996.742917	9.394000
2001.375150	9.135800
2013.212917	8.452300
2012.714650	8.472800
2018.213600	8.155700
2007.473100	9.069800
2013.179617	8.796400
2017.312167	8.557300
2015.986867	8.641000
2020.621933	8.391000
2013.572883	8.807700
2018.314467	8.535400
2017.527600	8.580500
2017.806417	8.879500
2007.280683	9.544200
2022.971867	8.652400
2011.098250	9.387500
2013.330267	9.392800
2019.135667	9.103000
2030.103800	8.453900
2014.188683	9.433200
2025.670717	8.785900
2022.312233	8.993100
2016.899050	9.408500
2023.287967	9.173200
2018.972033	9.466200
2022.047833	9.290700
2032.920000	8.656700
2025.943867	9.047800
2025.531233	9.092400
2025.849200	9.083900
2029.986817	8.900500
2034.944817	8.873500
2028.914367	9.268900
2039.765117	8.641000
2031.991283	9.102600
2039.591017	8.667700
2035.751700	8.888900
2038.940350	8.711300
2041.824783	8.531400
2039.134533	8.985000
2040.525850	8.947700
2041.705367	8.873500
2041.514917	8.896300
2043.364950	8.903900
2048.847917	8.641600
2048.282083	8.716200
2041.167067	9.106300
2050.022967	8.595100
2050.044683	8.590800
2046.746750	8.907200
2048.977067	8.900500
2050.507050	8.812700
2056.059233	8.500800
2052.027917	8.741500
2056.379083	8.490300
2047.284900	9.028100
2044.030633	9.231900
2046.769867	9.117400
2052.705517	8.797600
2050.047033	8.963700
2047.620583	9.135300
2047.940867	9.123400
2057.476083	8.562300
2055.060600	8.732300
2057.281483	8.607600
2050.011550	9.063200
2053.247100	9.307100
2057.965067	9.046600
2058.129400	9.062300
2055.524317	9.242200
2061.367617	9.048100
2057.863967	9.316600
2057.819883	9.364500
2056.210733	9.466200
2059.917217	9.241600
2055.256850	9.540200
2054.878600	9.623600
2059.070983	9.562800
2065.940500	9.174500
2072.955617	8.756200
2067.534783	9.101700
2065.224733	9.254700
2067.801400	9.119300
2070.382400	8.974100
2074.295800	8.794400
2076.928983	8.917500
2077.355900	8.909000
2076.228950	8.990900
2075.678433	9.025200
2075.166350	9.046100
2078.306667	8.853400
2080.388717	8.723500
2075.866233	8.984100
2093.088617	8.261200
2092.674317	8.290900
2089.371017	8.494000
2089.572833	8.497500
2085.238767	8.934400
2080.020917	9.241300
2083.409450	9.062300
2095.335733	8.362800
2081.630917	9.298000
2085.147083	9.151500
2089.772400	8.905700
2082.691517	9.333100
2088.770133	8.999400
2084.451667	9.260500
2090.589950	8.918300
2090.666000	8.941100
2088.211000	9.079100
2088.790317	9.036700
2093.993717	8.772700
2090.501250	9.091400
2094.036950	8.926700
2099.094817	8.621800
2091.786400	9.069800
2095.140433	8.911500
2093.739000	9.008300
2091.315883	9.184500
2102.205017	8.585500
2096.391267	9.244600
2100.321267	9.070600
2105.891567	8.752900
2104.551683	8.848200
2110.301933	8.522100
2098.628800	9.230900
2101.164933	9.090300
2097.304883	9.323400
2107.922817	8.966200
2110.941900	8.870600
2109.732667	8.983300
2102.676900	9.439400
2106.410533	9.234600
2104.432883	9.364500
2109.469617	9.097300
2106.767317	9.261100
2110.809267	9.048400
2117.350683	8.665500
2112.531583	9.091200
2119.022683	8.889300
2113.262033	9.254400
2107.620017	9.626500
2113.438267	9.263800
2117.234983	9.041400
2122.513317	8.731000
2117.485033	9.030300
2124.058517	8.692600
2127.522067	8.723800
2123.977250	8.949800
2126.174933	8.829600
2125.787767	8.845300
2122.345633	9.231900
2120.725750	9.341900
2114.739217	9.707800
2130.392233	8.792400
2132.237300	8.758100
2121.575900	9.450500
2123.558733	9.350400
2122.238267	9.439300
2129.103717	9.046600
2134.718083	8.742900
2123.721767	9.412000
2124.770017	9.351700
2123.158533	9.473400
2125.621250	9.349700
2129.817000	9.224900
2136.095333	9.098100
2132.895367	9.327400
2139.887467	8.948500
2134.283150	9.280400
2130.144467	9.540700
2136.006000	9.242600
2148.565200	8.698700
2139.934517	9.226300
2141.733183	9.133800
2127.794783	9.958800
2142.115617	9.265600
2146.590817	9.031600
2150.115633	8.826300
2143.311117	9.211000
2147.334500	9.020900
2152.675783	8.719200
2143.088717	9.432100
2147.247633	9.274200
2154.023267	8.869300
2147.331867	9.258400
2146.591117	9.334000
2153.673100	8.892500
2152.383867	8.976700
2147.938283	9.255900
2147.397767	9.291700
2152.692550	8.976800
2149.824250	9.419000
2151.776450	9.334400
2155.347167	9.143800
2157.993767	9.025600
2155.603833	9.195900
2161.402783	9.051900
2157.217517	9.322600
2158.564417	9.232000
2151.111933	9.683400
2160.895617	9.240100
2158.006433	9.455400
2150.228383	9.943500
2158.412550	9.486800
2166.684767	9.008800
2163.444800	9.194300
2161.258750	9.425300
2166.400333	9.112500
2167.552817	9.058300
2168.957717	8.968600
2170.289067	9.021100
2169.093883	9.151200
2168.011217	9.219700
2174.630667	8.827000
2170.555617	9.086200
2165.491567	9.420100
2167.502933	9.409500
2165.751250	9.652100
2164.145617	9.778900
2168.538567	9.552100
2166.188183	9.690000
2165.721433	9.718500
2168.617283	9.589500
2170.668683	9.673800
2176.548500	9.359300
2177.530133	9.295500
2170.185817	9.746500
2169.003983	9.897600
2171.611183	9.784800
2172.829200	9.746300
2175.231500	9.603800
2171.999050	9.854300
2175.688383	9.648300
2177.622500	9.761000
2186.050067	9.290500
2183.564450	9.441200
2171.122583	10.209300
2179.168033	9.793800
2179.102933	9.832500
2198.831150	8.656700
2184.914850	9.503600
2193.204867	9.037900
2184.358200	9.556400
2197.066733	8.934000
2194.258783	9.204300
2195.165867	9.152200
2194.099533	9.236700
2195.690950	9.194000
2192.659783	9.498000
2192.961083	9.508200
2198.298183	9.191700
2193.698167	9.465700
2191.260567	9.612100
2195.540267	9.376300
2196.900833	9.506100
2189.078817	10.007800
2195.697550	9.644900
2200.353517	9.362800
2209.943883	8.967900
2203.734633	9.360900
2197.753050	9.755900
2194.408317	9.979600
2207.409500	9.336800
2208.574367	9.321100
2210.811217	9.196600
2201.528117	9.754000
2208.073617	9.402100
2206.012233	9.507900
2199.393867	9.898600
2198.789800	9.957500
2208.092150	9.557300
2216.800550	9.244400
2220.355133	9.036900
2211.161017	9.599200
2207.503917	9.876100
2216.451150	9.461600
2218.131133	9.356100
2221.067817	9.197800
2217.975617	9.392800
2213.313133	9.682800
2209.657067	9.908800
2216.929850	9.667700
2221.099650	9.480200
2219.081133	9.620400
2214.650233	9.901500
2229.802367	9.023500
2229.511417	9.012400
2227.078267	9.219700
2221.290917	9.577000
2216.690083	9.877500
2221.876117	9.608500
2219.418617	9.807100
2219.994733	9.787800
2215.184383	10.109100
2223.114667	9.652300
2222.538883	9.907200
2227.680117	9.748300
2231.855783	9.535200
2234.241417	9.403600
2227.191983	9.824100
2220.622817	10.225600
2228.555383	9.793200
2231.323883	9.637200
2221.477933	10.263000
2237.865017	9.506200
2234.971283	9.695700
2238.197583	9.529200
2241.505517	9.326200
2227.951883	10.166400
2228.250567	10.144600
2236.674767	9.805000
2228.807250	10.288700
2234.487417	9.990700
2240.889383	9.639300
2237.847100	9.911300
2237.377467	9.991600
2238.781383	9.964500
2243.928817	9.687400
2236.103700	10.184000
2240.463117	9.963400
2239.892233	10.156500
2247.812833	9.780900
2253.860633	9.435600
2247.193800	9.843200
2249.238650	9.759500
2253.909267	9.500200
2246.490800	9.944300
2248.451867	9.849700
2250.980217	9.781300
2253.947633	9.674700
2248.225650	10.028900
2240.976317	10.468000
2251.470617	9.859600
2254.055317	9.707200
2251.846850	9.923300
2256.650417	9.945400
2262.717783	9.618300
2254.892717	10.121800
2257.827283	9.954000
2268.610417	9.319000
2262.197350	9.712100
2260.670817	9.890500
2266.018517	9.604300
2264.471450	9.712700
2266.687700	9.593600
2259.543267	10.039300
2263.084550	9.866600
2262.288050	9.996800
2271.283367	9.497200
2262.580050	10.065200
2267.848800	9.758000
2262.808500	10.070300
2266.766067	9.865900
2266.436600	9.884900
2272.464867	9.551500
2268.163350	9.925700
2270.145833	10.050600
2287.059250	9.091700
2284.029650	9.298400
2279.174717	9.590800
2276.496933	9.755400
2272.156917	10.029700
2277.758850	9.716900
2284.598333	9.365100
2283.832483	9.610800
2284.855500	9.550100
2290.139117	9.237400
2287.069217	9.413800
2283.652367	9.700600
2285.320750	9.620600
2287.065350	9.535400
2281.438417	9.899800
2282.011167	9.894100
2289.145417	9.469600
2288.740067	9.686200
2293.463767	9.460300
2282.650267	10.131700
2284.119633	10.061700
2286.192617	9.959200
2293.460050	9.533900
2293.174617	9.544900
2290.657117	9.727300
2290.757283	9.966600
2291.945000	9.995300
2299.998500	9.556100
2290.636167	10.163200
2297.010750	9.826700
2304.500883	9.392100
2308.334200	9.150800
2295.054300	9.944600
2291.310500	10.215500
2295.806100	10.054400
2297.588217	9.984700
2299.201233	9.898200
2302.132250	9.754700
2303.427200	9.834500
2305.180550	9.756800
2303.376983	9.934200
2301.039333	10.068600
2307.389617	9.703300
2306.114017	9.796600
2310.494367	9.716500
2307.595850	9.947600
2306.003683	10.083000
2316.399083	9.485700
2314.799317	9.580600
2314.874683	9.575100
2304.807717	10.203100
2315.048817	9.611500
2303.835683	10.503300
2313.399367	10.091500
2315.497267	10.009600
2311.705100	10.244000
2315.224617	10.060900
2312.496117	10.227400
2311.359533	10.284000
2316.176633	10.005300
2315.483417	10.151800
2318.294117	10.229500
2327.608967	9.679000
2326.014917	9.784900
2325.504483	9.842400
2321.640667	10.214200
2327.849100	9.890300
2327.991800	9.874400
2319.028733	10.427700
2327.992767	10.071700
2322.604117	10.426000
2334.545700	9.721400
2336.244817	9.623200
2339.178800	9.571100
2336.227400	9.775700
2330.576700	10.118300
2336.666267	9.787600
2333.691500	9.977600
2334.466267	9.918400
2337.858683	9.798600
2332.493317	10.167100
2337.862067	9.894100
2339.330700	9.825500
2337.397500	9.960500
2343.091333	9.638100
2337.078283	10.000800
2337.929667	9.974500
2336.928567	10.142800
2335.759700	10.483400
2340.501233	10.226700
2343.504750	10.058300
2341.931883	10.177800
2350.708267	9.815500
2344.223650	10.229000
2339.384117	10.553200
2346.077750	10.139300
2351.287783	9.903300
2347.621183	10.127400
2346.607850	10.196600
2350.000167	10.022800
2351.545883	9.999000
2349.595617	10.151800
2347.178783	10.332300
2349.720067	10.180300
2350.950017	10.180300
2339.499283	10.918500
2355.945750	9.974300
2348.853917	10.411000
2353.623800	10.151900
2354.689033	10.106100
2355.430483	10.070100
2356.631300	10.007000
2357.748383	9.966900
2361.046333	9.774000
2361.772350	9.899300
2358.359017	10.393900
2360.503367	10.315900
2360.933700	10.327700
2369.816117	9.841000
2373.903833	9.746700
2371.741617	9.908500
2370.996700	9.958400
2372.080167	9.900700
2366.949867	10.201300
2370.823517	9.981700
2361.952633	10.674900
2373.192550	10.087700
2371.489700	10.198400
2374.661167	10.030900
2372.543167	10.176400
2375.184750	10.026800
2374.969800	10.040300
2372.602267	10.215100
2379.806650	10.039700
2379.858083	10.116900
2383.495083	9.901500
2383.619350	9.902900
2374.517367	10.457500
2376.475567	10.346500
2379.847367	10.172200
2377.385733	10.332300
2377.746833	10.494600
2377.262283	10.721700
2381.582200	10.513700
2386.666917	10.217500
2390.016283	10.115100
2390.935583	10.161000
2393.386500	9.996800
2393.006650	10.038500
2382.634250	10.704800
2391.745100	10.299500
2389.993933	10.417200
2394.619933	10.165500
2389.575683	10.450500
2393.582250	10.231100
2393.413783	10.239300
2392.561017	10.276900
2390.124967	10.429000
2398.697717	9.925600
2397.539283	9.991800
2401.645567	10.121800
2396.839433	10.437900
2405.522267	9.948100
2395.783533	10.550700
2407.007500	10.037900
2403.561633	10.266900
2406.392467	10.114600
2402.977233	10.331100
2408.017117	10.135000
2405.465200	10.363100
2399.292233	10.749300
2393.669267	11.096800
2399.684067	10.767400
2395.990900	11.013500
2404.035017	10.557700
2413.586983	9.987900
2414.859517	9.910600
2402.449417	10.669900
2410.456283	10.196400
2406.968533	10.724700
2411.359817	10.550500
2407.971217	10.781500
2405.146183	10.963500
2414.571600	10.423100
2410.024817	10.708000
2419.390367	10.153300
2413.147800	10.526600
2417.409217	10.292500
2412.679133	10.572900
2411.712800	10.980500
2426.041500	10.154000
2421.141800	10.508600
2422.959800	10.417400
2426.088533	10.378800
2428.330383	10.268700
2426.410083	10.395300
2424.333383	10.529100
2428.923350	10.371200
2427.627367	10.531600
2436.809050	9.970100
2422.500267	10.815400
2419.545383	11.031000
2432.795000	10.263500
2423.836767	10.805200
2419.724483	11.070900
2428.542817	10.581400
2430.195467	10.620100
2432.167417	10.535800
2427.734267	10.834000
2437.273733	10.284000
2433.416300	10.515800
2437.773450	10.270100
2437.834917	10.284100
2434.619150	10.483100
2439.837467	10.513900
2449.349383	9.954000
2449.169683	9.975600
2445.792100	10.177400
2459.472300	9.539600
2446.007783	10.341600
2443.262067	10.535500
2442.534667	10.601800
2448.248067	10.314400
2445.934050	10.490300
2452.417883	10.128600
2439.655600	10.925600
2441.554833	10.846500
2439.687733	10.981500
2444.760367	10.711000
2449.805917	10.423300
2450.400033	10.393200
2449.779900	10.442300
2444.013050	10.895900
2454.674950	10.568900
2455.794400	10.537400
2465.829000	9.956600
2449.901367	10.923100
2453.562950	10.862300
2453.469467	10.902100
2451.636500	11.026400
2463.512067	10.321900
2458.611033	10.616400
2456.138567	10.764400
2462.159017	10.426000
2460.523400	10.532600
2459.208383	10.734000
2458.227167	10.839400
2451.295333	11.330400
2455.983067	11.110000
2468.924817	10.347400
2456.887250	11.094500
2461.566883	10.861800
2465.078667	10.670500
2462.664467	10.927300
2457.274467	11.344300
2460.005400	11.222000
2471.638367	10.553200
2471.713850	10.560200
2474.233033	10.414500
2472.425533	10.544400
2478.196317	10.208500
2472.099017	10.582600
2475.364233	10.400700
2472.534183	10.566600
2472.811850	10.585400
2478.268850	10.284800
2477.200250	10.365200
2470.966183	10.755300
2477.265017	10.392700
2476.034917	10.472500
2476.618450	10.490300
2477.530583	10.444200
2470.080850	10.904900
2468.068317	11.045800
2467.997783	11.074500
2469.606083	10.996200
2472.686683	10.827900
2465.625350	11.279000
2473.064750	10.852100
2477.057700	10.612700
2472.391000	10.907900
2466.215850	11.286800
2473.674350	10.838300
2481.501783	10.379100
2487.548067	10.030900
2478.118317	10.597000
2474.913600	10.790000
2466.534667	11.299600
2477.194217	11.326600
2496.653633	10.929000
2496.367733	11.029200
2492.288400	11.286200
2485.889600	11.712800
2490.608733	11.479200
2494.216717	11.270500
2498.344533	11.054100
2498.544983	11.056800
2506.180383	10.625400
2503.766967	10.766500
2507.817283	10.509300
2506.096700	10.605800
2506.476817	10.590400
2504.702200	10.696400
2500.333767	10.972600
2507.184200	10.579400
2494.745850	11.300900
2496.018800	11.247200
2502.098950	10.879700
2505.690433	10.676400
2514.015000	10.969400
2513.982967	11.026300
2509.707267	11.310700
2515.805733	10.941300
2518.585617	10.927300
2515.802267	11.157100
2512.093333	11.417400
2513.953200	11.321600
2516.962483	11.162100
2524.894650	10.685000
2513.709617	11.423500
2527.679783	10.759800
2525.062783	10.929600
2527.129167	10.812100
2523.150600	11.091800
2528.706667	10.898800
2531.257733	10.768500
2522.667000	11.339600
2531.358000	10.819400
2524.398467	11.248000
2539.763683	10.339500
2525.930167	11.289700
2533.713750	10.833200
2523.613750	11.436200
2524.614067	11.422600
2535.531767	10.824700
2531.985600	11.077700
2532.787417	11.053600
2530.823217	11.196700
2527.702817	11.462800
2532.631550	11.207000
2542.231550	10.663100
2542.680017	10.654900
2538.982833	10.898100
2534.670033	11.163600
2542.364400	10.895900
2534.946150	11.418500
2539.106300	11.179700
2546.370500	10.776500
2546.771000	10.749500
2541.436600	11.079500
2547.561833	10.712100
2542.477200	11.003600
2541.083667	11.161300
2542.726183	11.192400
2545.038117	11.086900
2540.122283	11.428800
2548.982550	10.942700
2553.135683	10.705500
2550.350517	10.905100
2542.873183	11.354700
2541.932983	11.432400
2545.305133	11.277600
2546.079450	11.222300
2553.265083	11.151600
2554.622367	11.096200
2554.221183	11.295900
2560.463750	10.980200
2556.590033	11.315100
2558.748883	11.180700
2557.489417	11.277100
2559.493400	11.154800
2561.300767	11.177800
2560.842500	11.251700
2562.952683	11.173500
2568.221150	10.863800
2571.548617	10.714000
2569.563833	10.911900
2560.984983	11.453100
2559.634800	11.582900
2563.378017	11.401600
2564.499183	11.348400
2566.331050	11.263700
2578.614667	10.676200
2583.608167	10.414600
2567.662967	11.392300
2571.631867	11.182600
2569.614667	11.313100
2573.665650	11.072900
2571.066917	11.419600
2574.710700	11.216000
2572.278200	11.377100
2571.394883	11.435100
2581.684517	10.942900
2585.733900	10.766000
2581.004033	11.092200
2581.150483	11.115900
2580.892467	11.139400
2581.560800	11.147900
2575.227167	11.583700
2578.533283	11.431800
2577.563767	11.514100
2575.357217	11.686900
2581.344600	11.363600
2577.903750	11.603900
2581.864700	11.390300
2587.436483	11.223900
2585.003167	11.409100
2590.530450	11.144600
2588.713367	11.279200
2595.796633	10.857300
2599.787967	10.624600
2590.918450	11.332700
2597.115833	10.975800
2588.102383	11.577600
2590.410100	11.454800
2589.737533	11.554800
2596.187500	11.190500
2594.300750	11.346500
2600.905417	10.999900
2605.745617	10.722400
2592.604633	11.517000
2591.478267	11.747800
2603.170000	11.088200
2595.907033	11.548500
2604.043667	11.065900
2596.731467	11.588800
2609.037633	10.974000
2608.448683	11.053200
2605.307683	11.291100
2601.787067	11.497600
2601.618017	11.554900
2607.557850	11.226500
2611.934267	11.109100
2611.606267	11.186200
2612.988917	11.131000
2607.517750	11.457800
2615.014750	11.034500
2616.495817	10.962700
2610.349983	11.468100
2612.667733	11.381400
2610.192950	11.560100
2610.102100	11.570900
2613.610183	11.397300
2613.140483	11.429400
2612.818683	11.640300
2620.110167	11.253100
2621.092400	11.216300
2617.768100	11.420300
2624.083500	11.204900
2624.607467	11.210800
2622.372150	11.328200
2617.390883	11.668500
2620.878167	11.535700
2628.272833	11.223300
2629.017183	11.231400
2627.651917	11.338000
2623.835683	11.562000
2619.451317	11.887900
2627.368200	11.436800
2621.795817	11.793700
2617.652483	12.081000
2625.474300	11.805500
2624.826450	11.861300
2630.333883	11.539200
2633.072850	11.365700
2638.973200	11.146400
2635.945300	11.360300
2631.992200	11.682200
2624.408517	12.151300
2629.505783	11.859000
2627.470833	12.004500
2632.317717	11.840500
2634.052100	11.787800
2638.847117	11.564200
2647.502200	11.066600
2645.418883	11.199300
2645.635950	11.189300
2645.963967	11.209300
2648.078817	11.195800
2640.646500	11.674400
2652.894300	10.969400
2640.940317	11.705800
2637.565450	12.070100
2640.833400	11.923700
2642.221233	11.937600
2647.360083	11.640600
2652.565200	11.312000
2645.913917	11.731600
2643.667633	11.938500
2644.989983	11.891700
2655.873050	11.292800
2656.733283	11.240100
2661.523500	10.971500
2667.153233	10.650300
2662.953250	10.965200
2666.006083	10.860300
2649.495417	11.866000
2657.922767	11.402200
2649.542117	11.920900
2656.462867	11.541100
2649.977533	12.015300
2650.183717	12.128500
2656.562383	11.778300
2653.549717	11.976700
2660.669733	11.574300
2668.870117	11.250400
2671.215317	11.093200
2662.896533	11.628900
2663.806767	11.547700
2661.484800	11.864300
2663.361017	11.801200
2663.029167	11.878300
2670.261700	11.470700
2666.343333	11.718600
2667.858817	11.617000
2665.867917	11.757100
2667.907617	11.630800
2668.788183	11.709300
2668.528767	11.743900
2668.720600	11.795000
2674.056500	11.489600
2675.877650	11.522300
2675.114167	11.646400
2672.241400	11.915600
2669.957983	12.051300
2675.335417	11.737300
2677.208950	11.676200
2674.064700	11.971100
2673.317617	12.119500
2679.321383	11.785200
2690.066683	11.149200
2683.940800	11.508800
2683.993200	11.517800
2678.273967	11.883400
2683.066117	11.587600
2681.293650	11.728700
2696.284550	11.034500
2694.886067	11.134900
2696.286117	11.127700
2689.839367	11.537200
2693.251467	11.383300
2688.946467	11.652700
2690.861267	11.557300
2691.950050	11.503700
2686.561500	11.989100
2697.141867	11.373100
2697.369017	11.382400
2701.420650	11.141300
2696.361983	11.552400
2695.536233	11.667000
2694.930367	11.747800
2695.544800	11.724200
2694.551883	11.789700
2687.262517	12.236200
2689.121550	12.185900
2693.956850	11.943800
2700.479700	11.603300
2702.783517	11.519500
2700.856300	11.663900
2695.694833	12.004800
2699.463867	11.812600
2695.974000	12.049700
2697.675033	11.983800
2707.348267	11.624800
2703.972300	11.847800
2707.926417	11.639800
2711.058033	11.466000
2704.141967	12.061300
2705.637067	11.997100
2706.021617	12.008800
2698.576450	12.464300
2708.363383	12.065100
2708.884350	12.044300
2712.488967	11.849200
2716.682400	11.600300
2710.735383	12.118200
2714.645717	11.962300
2715.331867	11.999500
2718.109117	11.855800
2720.602567	11.716300
2718.428750	11.870600
2716.909017	12.082000
2718.767917	12.052000
2722.687883	11.852700
2722.790317	11.876500
2719.826650	12.067700
2723.218733	11.867700
2721.662283	11.972100
2730.065917	11.492500
2724.920033	11.825700
2733.320267	11.460700
2728.950667	11.732500
2726.293417	11.970400
2722.656600	12.210800
2727.480617	12.080800
2724.557967	12.291700
2728.378950	12.141200
2736.384700	11.658200
2732.630850	11.881700
2733.472750	11.848100
2736.812100	11.755700
2740.634133	11.538000
2728.559850	12.261800
2737.939033	11.709300
2735.967650	11.909600
2738.965283	11.754300
2733.769200	12.139400
2732.948383	12.213900
2742.405383	11.654700
2744.930233	11.520300
2727.527617	12.723400
2740.808117	11.954800
2745.832333	11.678100
2739.774150	12.061100
2739.686133	12.153900
2751.759800	11.555000
2747.067617	11.868400
2743.861883	12.114900
2748.937133	11.851800
2753.195000	11.600900
2748.129050	11.915600
2749.329667	12.021700
2753.442900	11.793200
2757.793767	11.614600
2752.892133	11.888700
2757.314583	11.655600
2748.738483	12.173700
2752.431883	12.142200
2752.749300	12.118400
2743.204717	12.720700
2752.104167	12.186700
2751.680700	12.272300
2758.161567	11.940100
2759.678450	11.915600
2758.753867	12.012700
2756.559200	12.173000
2759.795017	12.000700
2764.578517	11.803000
2760.349800	12.175400
2765.304917	11.929900
2771.920617	11.581300
2770.402467	11.696200
2763.720517	12.096400
2755.623600	12.699800
2762.079983	12.395400
2767.302500	12.100700
2762.713850	12.423200
2770.690750	11.968100
2765.798917	12.257500
2770.990733	11.951100
2769.922933	12.050700
2776.018200	11.709800
2777.769633	11.574000
2767.328300	12.202400
2773.258150	12.038000
2776.883867	11.893900
2788.024550	11.296700
2777.330517	11.961700
2770.723783	12.370200
2781.863200	11.723300
2779.647550	11.970500
2778.183083	12.117600
2782.300167	11.961100
2783.547667	11.907100
2775.555117	12.413200
2783.710700	11.935400
2784.881900	11.968100
2777.694683	12.503100
2780.643200	12.350600
2791.321483	11.718600
2790.623683	11.760000
2794.731217	11.673100
2788.923317	12.047200
2794.811217	11.764000
2797.883283	11.577000
2795.859433	11.701500
2785.069083	12.375300
2786.685750	12.436400
2783.666683	12.645600
2791.238117	12.277000
2790.373783	12.345000
2799.751883	11.780400
2792.908650	12.191000
2791.206217	12.469000
2796.003917	12.204700
2790.074917	12.568600
2800.559367	11.955700
2800.536550	12.094700
2797.577667	12.342400
2797.943617	12.368800
2800.610867	12.254800
2807.148233	11.852700
2810.105117	11.702500
2804.214983	12.066900
2808.721033	11.845500
2803.522300	12.186800
2801.336550	12.377900
2799.817450	12.496100
2808.443217	12.019900
2809.509367	11.979400
2803.372983	12.521400
2802.501200	12.598400
2812.348067	12.080800
2813.067767	12.029500
2807.409467	12.535900
2809.046217	12.511600
2810.223550	12.504800
2818.405733	12.050700
2814.994217	12.275500
2822.955850	11.795000
2815.353317	12.387700
2817.506383	12.297600
2820.464717	12.153400
2820.872150	12.130400
2817.784250	12.376400
2825.330783	11.945700
2825.037783	11.974800
2822.556167	12.160000
2825.445033	12.007800
2827.385483	11.913000
2835.739700	11.471000
2828.548767	11.999500
2832.726350	11.780000
2830.016867	12.001000
2832.494417	11.865100
2827.106317	12.171100
2825.877050	12.272300
2828.785600	12.266000
2836.200033	11.849400
2833.997883	11.996100
2825.737783	12.486900
2836.590850	11.926100
2828.593833	12.440100
2828.631433	12.524700
2833.861000	12.239000
2832.261083	12.390300
2836.893417	12.152200
2839.998883	11.990400
2837.047800	12.180200
2833.518950	12.576500
2836.924017	12.375400
2838.932433	12.300300
2838.111800	12.380000
2841.990650	12.252200
2843.313400	12.271700
2839.666467	12.544300
2848.260783	12.074400
2843.801200	12.353600
2847.433250	12.129200
2845.458050	12.272300
2848.909417	12.217900
2845.631983	12.465600
2848.283467	12.377200
2847.216650	12.430400
2854.051550	12.045200
2850.499483	12.268500
2849.492917	12.508300
2854.268100	12.241400
2856.654383	12.135900
2855.605417	12.175900
2849.070683	12.644700
2852.466650	12.485600
2856.785883	12.280200
2856.467567	12.323500
2866.346050	11.755700
2856.371983	12.366000
2856.156117	12.489400
2853.436817	12.720100
2869.700183	11.788200
2870.223900	11.796500
2875.810250	11.461100
2866.293550	12.053300
2853.272500	12.924200
2863.751883	12.425100
2855.825400	12.933200
2864.061817	12.466000
2861.063050	12.683000
2859.447817	12.931900
2859.680333	12.941700
2869.836783	12.390000
2862.828233	12.849900
2862.354200	12.908900
2863.397000	12.855500
2864.691483	12.861600
2867.759150	12.743600
2875.199533	12.330300
2876.176067	12.269500
2871.392650	12.545000
2867.696117	12.808300
2867.918050	12.821300
2873.229233	12.495900
2876.759767	12.324700
2875.940050	12.389300
2877.877700	12.436400
2882.040767	12.423100
2883.518200	12.342200
2881.686733	12.465000
2876.211050	12.820400
2877.670017	12.902500
2877.281267	12.943000
2880.525833	12.765900
2884.296717	12.574900
2877.228383	13.140000
2881.774933	12.897300
2883.907600	12.803600
2878.452183	13.160700
2892.177500	12.382400
2891.519383	12.401700
2891.913083	12.398700
2883.661533	12.899400
2879.152567	13.329700
2890.967800	12.638300
2894.354483	12.450600
2886.285783	12.963900
2896.269800	12.587000
2895.628817	12.677500
2895.188567	12.729400
2895.177967	12.741700
2899.322133	12.673500
2897.624733	12.805200
2894.990717	13.002100
2903.990133	12.483900
2901.112000	12.740600
2900.120083	12.924000
2898.509733	13.030200
2894.048567	13.324600
2899.994917	12.997000
2900.913850	13.117700
2900.050833	13.214400
2900.049050	13.234100
2905.045150	12.930500
2904.996017	12.947800
2912.395733	12.531900
2905.741417	13.144000
2907.385700	13.067300
2914.011950	12.698300
2910.749300	12.891200
2914.579883	12.834600
2915.368933	12.774600
2911.274317	13.021000
2915.080883	12.819300
2915.416117	12.985600
2918.441967	12.823900
2925.397500	12.401900
2922.465750	12.579800
2921.262817	12.823000
2920.768467	12.847900
2924.896283	12.625200
2920.396983	12.899100
2915.044300	13.318100
2936.715083	12.113100
2937.223267	12.072100
2933.014200	12.309800
2932.879217	12.327400
2929.270000	12.609800
2920.751800	13.120100
2926.142650	12.816800
2931.045317	12.528100
2935.440167	12.269200
2936.299200	12.226400
2935.405567	12.497200
2923.471683	13.241100
2915.692050	13.733900
2932.413100	12.746000
2926.995983	13.220400
2934.702717	12.824800
2940.084700	12.512900
2937.524233	12.676800
2940.784183	12.541500
2939.594183	12.612900
2932.697067	13.035400
2937.376383	12.777000
2936.488500	13.174400
2942.727867	12.852400
2941.888650	12.937700
2944.727450	12.794900
2942.117533	13.090500
2937.318917	13.408000
2945.411633	12.935400
2955.285067	12.343900
2948.268467	12.826300
2948.269133	12.972000
2953.832483	12.663600
2954.448283	12.643800
2959.985050	12.333500
2953.506133	12.742200
2957.595033	12.503100
2952.736533	12.798900
2953.279367	12.784600
2960.983417	12.649900
2957.156917	12.900100
2954.711967	13.087600
2963.373250	12.578900
2961.978883	12.786300
2964.856417	12.661000
2957.968167	13.078300
2962.813700	12.802700
2973.353333	12.187500
2962.140383	12.858600
2962.476633	13.048500
2956.620317	13.450300
2959.308967	13.331800
2967.513350	12.851900
2958.178067	13.511500
2966.966900	13.092500
2959.110083	13.584300
2960.219733	13.545300
2963.089683	13.382700
2965.142317	13.277800
2970.198817	12.990400
2970.469783	13.000500
2970.524817	13.025800
2972.247183	13.228800
2971.026200	13.325900
2975.567267	13.063600
2975.657650	13.041800
2971.409933	13.470000
2972.019517	13.481500
2974.939650	13.317200
2977.030000	13.190900
2980.793317	12.975100
2979.771250	13.055300
2983.312217	12.863800
2980.503967	13.037500
2972.129000	13.598900
2975.616033	13.415700
2978.248700	13.399100
2981.751367	13.240300
2982.178250	13.237400
2985.595750	13.044800
2977.864600	13.519700
2975.927450	13.644800
2982.686183	13.432500
2986.878183	13.371900
2994.320833	12.966600
2993.502167	13.010800
2988.516483	13.381200
2990.180467	13.381600
2991.441383	13.320300
2992.075133	13.293000
2994.475550	13.161500
2993.666767	13.233700
2989.381517	13.540300
2992.686333	13.528200
3000.532233	13.116000
3002.992783	12.965700
3001.969233	13.028400
3000.714467	13.135300
2988.477950	13.868900
3009.403250	12.788300
3018.289417	12.309400
3003.505183	13.207500
3000.040850	13.408700
3010.216983	12.817800
3005.621367	13.108900
3008.019817	12.967000
3000.104633	13.455300
3007.693167	13.264300
3005.723750	13.496300
3011.691567	13.167700
3002.413867	13.746100
3010.854533	13.257300
3017.547583	12.872100
3010.513783	13.314300
3021.653967	12.640000
3010.870417	13.416400
3001.453050	14.174900
3009.851533	13.709400
3013.866417	13.506400
3014.395017	13.482700
3012.381600	13.623800
3007.995933	13.875900
3011.337400	13.683200
3011.941833	13.678800
3021.739667	13.248700
3021.477550	13.312400
3018.650850	13.509500
3019.135767	13.488400
3021.674333	13.548600
3024.829600	13.391000
3028.135400	13.226900
3033.953950	12.902900
3033.381600	13.050800
3028.080083	13.437300
3025.451817	13.625500
3030.174983	13.363200
3034.905317	13.065700
3029.890783	13.386300
3028.933967	13.452400
3035.180700	13.098200
3036.737650	12.994400
3031.859067	13.299700
3035.390100	13.113200
3039.527300	12.978800
3027.570133	13.725600
3023.330500	14.003900
3034.068633	13.395600
3034.267533	13.419900
3037.282600	13.278500
3031.770867	13.726900
3032.945767	13.689100
3035.537550	13.571900
3040.883467	13.291300
3045.414450	13.170200
3039.999883	13.549200
3035.508100	13.836800
3037.145783	13.766400
3046.747400	13.205900
3039.492817	13.649800
3038.808617	13.847800
3041.828000	13.793300
3045.582667	13.607500
3046.563233	13.578300
3046.714100	13.606100
3045.622467	13.675600
3048.830900	13.520600
3044.354750	13.794500
3046.390683	13.811700
3055.367900	13.518800
3054.339083	13.628100
3056.342233	13.512000
3042.573900	14.381600
3052.840200	13.806200
3057.855767	13.503100
3048.755783	14.040900
3045.902150	14.276900
3062.027100	13.641200
3063.347567	13.597300
3063.733967	13.586500
3068.840467	13.300300
3055.785333	14.232000
3064.714083	13.744800
3072.323267	13.300300
3071.302450	13.379600
3067.933550	13.609400
3062.833883	13.913400
3071.469283	13.615800
3073.655300	13.518800
3071.047583	13.679400
3071.479333	13.657500
3081.191450	13.085300
3073.782617	13.535500
3070.118317	13.755400
3065.039633	14.053500
3067.452383	14.019300
3068.453217	14.027800
3079.508900	13.411700
3084.145750	13.163900
3076.352133	13.634400
3088.803900	12.903200
3084.118050	13.208000
3091.325067	12.787600
3076.192650	13.714700
3077.963567	13.917400
3076.069383	14.098200
3083.491850	13.693400
3091.846350	13.216400
3095.382817	13.109800
3092.960350	13.291400
3094.353617	13.209400
3090.927633	13.410900
3090.200867	13.459000
3098.993683	12.959700
3089.590850	13.703300
3087.938000	13.904600
3094.190217	13.573000
3087.968717	13.971700
3083.112067	14.296900
3095.748717	13.534600
3098.167833	13.384200
3095.211133	13.569300
3098.417483	13.528500
3101.559950	13.541600
3101.643183	13.557300
3100.018700	13.676600
3086.210567	14.527600
3087.170767	14.513200
3088.671517	14.451100
3102.068633	13.680600
3102.392117	13.700500
3101.620417	14.072800
3099.826033	14.215200
3104.439633	13.932900
3105.620067	13.864900
3107.282133	13.928400
3111.595450	13.706600
3109.945483	13.843200
3103.309367	14.247400
3105.574683	14.145300
3109.540483	13.917000
3114.598817	13.689700
3113.249383	13.829700
3119.632467	13.465900
3117.314250	13.602200
3116.534117	13.667500
3108.071667	14.172100
3112.306800	13.957700
3108.995083	14.167500
3105.625483	14.453400
3112.077633	14.226300
3123.856550	13.561100
3121.859683	13.688400
3113.118950	14.228300
3127.373667	13.411900
3123.378983	13.660500
3127.801950	13.434500
3118.743767	13.971700
3114.067083	14.639100
3125.210783	14.002500
3129.258333	13.774200
3123.419517	14.127700
3128.653283	14.009100
3126.769900	14.138900
3138.662067	13.452400
3134.964383	13.698900
3128.368417	14.263600
3132.942133	14.066100
3133.626267	14.060800
3133.621467	14.102500
3129.806217	14.347900
3133.028033	14.190600
3142.071767	13.664200
3137.816800	13.953800
3137.167083	13.989600
3130.607383	14.370300
3139.132383	14.039400
3147.220433	13.754700
3146.882233	13.808700
3139.962867	14.233300
3139.528100	14.272700
3145.727183	13.922700
3146.401533	13.895400
3145.321450	13.966100
3148.150767	13.807300
3150.178633	14.045100
3152.940067	13.908700
3150.368933	14.098200
3141.574017	14.616100
3149.980733	14.326200
3152.168300	14.212400
3155.726533	14.015100
3163.479433	13.569600
3165.463633	13.555800
3158.345167	14.081500
3165.259250	13.701200
3157.250433	14.165400
3164.737583	13.721400
3159.745200	14.041400
3163.595950	13.811900
3157.265467	14.223400
3159.592967	14.113300
3152.161317	14.569000
3159.811183	14.216400
3168.736933	13.942200
3163.564500	14.273600
3157.180783	14.663400
3165.764767	14.195500
3170.191350	14.097500
3167.314033	14.279100
3176.641117	13.735900
3175.262033	13.816200
3165.640467	14.472700
3157.210450	15.022400
3163.142333	14.699700
3162.997850	14.720000
3173.661717	14.125900
3163.477533	14.749200
3167.440883	14.741100
3165.328400	14.927000
3165.975933	14.936700
3171.399250	14.625200
3179.729367	14.148700
3176.438800	14.352800
3187.534917	13.919200
3185.292967	14.051500
3177.500183	14.553900
3176.553900	14.627300
3176.949933	14.716500
3179.574300	14.660900
3187.822217	14.183200
3189.817500	14.064800
3189.133917	14.115700
3181.760800	14.583200
3181.755167	14.624500
3189.122933	14.380800
3189.134483	14.400900
3178.917433	15.031200
3180.396033	14.989200
3192.405900	14.281400
3188.106833	14.551800
3187.127433	14.833800
3191.067200	14.648300
3188.088483	14.855700
3192.914167	14.590600
3201.206633	14.144100
3195.674183	14.498100
3204.453683	14.001000
3203.949483	14.034600
3199.887783	14.298600
3203.434600	14.095400
3204.236533	14.391300
3203.039217	14.449000
3199.320950	14.685800
3207.346050	14.227100
3214.170550	13.871000
3207.190083	14.379600
3207.495850	14.368700
3201.327350	14.734400
3208.128100	14.352500
3213.359333	14.031300
3213.486633	14.045100
3223.645567	13.513600
3216.348517	13.932100
3207.875350	14.450300
3201.667417	14.852800
3203.274467	14.905300
3211.797050	14.443700
3212.668467	14.428000
3211.547033	14.498400
3212.580517	14.438500
3218.874667	14.071000
3211.432017	14.725600
3216.151617	14.517100
3220.542467	14.280100
3214.540967	14.654800
3221.459850	14.259800
3222.622117	14.210800
3226.481567	14.164000
3225.663717	14.253700
3223.419350	14.392100
3219.972000	14.615900
3213.592433	15.123300
3215.921517	15.059800
3217.465850	15.011000
3218.756050	14.965100
3220.241917	14.930800
3217.864700	15.115100
3218.685650	15.070700
3218.841267	15.108100
3223.245117	14.912500
3223.865567	15.177100
3229.363067	14.866300
3228.503683	14.955300
3229.969750	14.897000
3235.763450	14.694800
3231.761433	14.956200
3233.506817	14.873200
3243.037133	14.317800
3232.609267	14.933800
3232.818850	14.918000
3239.457333	14.522400
3236.886033	14.696700
3239.354967	14.799700
3233.821650	15.211700
3250.576983	14.226900
3252.062300	14.157200
3249.278117	14.325100
3254.877650	13.977500
3245.820017	14.611600
3247.462633	14.533200
3246.222400	14.618000
3246.895767	14.581300
3251.602883	14.349300
3243.299700	14.920400
3247.601900	14.702000
3251.788633	14.471700
3250.018750	14.597000
3250.617483	14.602200
3255.068317	14.395000
3253.404117	14.698600
3255.730750	14.597000
3262.187083	14.228100
3262.573117	14.194600
3257.046650	14.545100
3257.104400	14.568200
3257.006100	14.606000
3259.544600	14.468900
3262.403750	14.319200
3256.411533	14.695500
3265.070933	14.481300
3255.386233	15.162900
3267.651083	14.492700
3268.038583	14.478900
3268.350850	14.483300
3273.826717	14.175400
3272.239717	14.356900
3269.871950	14.574800
3271.098067	14.532100
3271.180167	14.527600
3269.868667	14.681800
3271.802183	14.688900
3276.147850	14.454200
3268.174500	14.963600
3271.389483	14.790600
3274.392050	14.637800
3276.584700	14.579300
3280.723017	14.515600
3274.834083	14.917500
3279.123367	14.668900
3285.764033	14.300700
3281.714483	14.703600
3284.533317	14.540800
3281.831200	14.723300
3283.099667	14.660200
3280.905633	14.872500
3282.863733	14.769600
3284.989933	14.675700
3283.379050	14.790500
3288.487783	14.556000
3286.456800	14.720300
3288.007867	14.692000
3280.669667	15.155200
3288.702433	14.733900
3290.702533	14.634600
3288.767367	14.831800
3298.876983	14.415300
3294.172917	14.730400
3292.857050	14.833700
3290.099967	15.032800
3289.811500	15.079100
3297.874500	14.597600
3296.166167	14.721100
3295.156150	14.849600
3294.353500	15.235700
3301.686917	14.801500
3304.987400	14.642300
3301.080467	14.896300
3303.734683	14.915100
3304.552700	14.892200
3313.472650	14.367500
3307.593867	14.720500
3311.568267	14.480800
3310.782883	14.523900
3307.610600	14.719400
3314.040967	14.353600
3314.644833	14.344800
3306.360117	14.823100
3313.412033	14.408400
3300.213500	15.211700
3303.068400	15.068900
3305.808667	14.907700
3305.292883	14.950500
3305.748833	14.926800
3313.128433	14.502900
3295.240717	15.574000
3307.541517	15.138700
3323.047250	14.682800
3317.433067	15.050500
3322.340533	14.760000
3323.073167	14.708200
3317.223767	15.068200
3308.851750	15.596000
3323.160017	14.769700
3323.232567	14.767900
3319.119317	15.326800
3316.158650	15.573800
3327.187767	14.923600
3330.597583	14.729700
3327.949617	14.924500
3326.739567	15.016000
3327.401850	14.984300
3328.224267	14.944600
3330.649467	14.953900
3333.750617	14.860000
3326.732100	15.309800
3330.678733	15.084300
3339.699683	14.562900
3328.679733	15.223800
3328.115833	15.280800
3329.533617	15.202300
3329.046767	15.424900
3333.807350	15.344000
3335.503700	15.270800
3342.685300	14.854100
3337.643233	15.168300
3336.788650	15.243200
3336.121117	15.306700
3335.231233	15.350400
3341.527717	14.969200
3350.948667	14.728600
3349.109633	14.867700
3351.028533	14.808900
3358.468817	14.392000
3356.370400	14.586800
3343.814717	15.340600
3348.446850	15.080300
3345.750717	15.266800
3349.278850	15.218000
3345.571267	15.499300
3346.667150	15.443300
3349.527650	15.275900
3347.371467	15.430600
3359.481517	14.728600
3354.401917	15.029800
3351.934417	15.179200
3342.664467	15.756700
3355.988217	14.986600
3352.359100	15.205100
3341.627133	15.885300
3346.851667	15.592000
3352.261617	15.292300
3358.666467	15.051100
3359.925433	15.420000
3356.201050	15.684200
3358.810000	15.539000
3360.140317	15.474400
3370.474033	14.940000
3369.360933	15.037500
3364.865650	15.332600
3367.943350	15.164900
3367.519883	15.242100
3368.163667	15.200500
3373.757983	14.891700
3374.464717	14.859100
3372.974983	15.273600
3375.358983	15.162300
3373.070650	15.311900
3370.448517	15.470500
3378.852500	15.087800
3374.373933	15.402600
3374.220600	15.437600
3368.768250	15.782900
3383.114083	14.944800
3385.030367	14.843500
3386.665283	14.804100
3381.524733	15.190800
3385.572100	14.977400
3379.874100	15.335900
3378.852933	15.442200
3389.676883	14.841000
3387.221283	14.995500
3388.493267	14.922100
3373.527233	15.975300
3382.495600	15.677000
3384.683483	15.585600
3379.611850	15.946400
3382.680733	15.813900
3392.874950	15.351800
3385.880517	15.787300
3389.106833	15.656700
3399.651067	15.038200
3392.283917	15.490900
3388.624050	15.722900
3390.904700	15.811700
3392.984150	15.757100
3400.311117	15.326200
3403.771650	15.136100
3403.132067	15.169600
3406.539333	14.971500
3396.598400	15.543200
3399.898700	15.364400
3406.647383	15.168300
3408.285717	15.210100
3404.721833	15.449100
3409.732483	15.172800
3405.794667	15.422800
3399.573500	15.813800
3409.073000	15.271700
3403.631000	15.601700
3404.544383	15.802200
3407.476117	15.722200
3417.824433	15.127800
3407.852850	15.748700
3413.422050	15.440300
3409.785500	15.770000
3415.489500	15.461900
3408.669367	15.919300
3411.463733	15.790500
3416.602450	15.483200
3421.367717	15.199000
3406.422767	16.120900
3414.549383	15.650100
3427.115033	15.143100
3431.887683	14.855100
3420.302583	15.554400
3419.013600	15.663800
3412.677433	16.237500
3425.873733	15.477600
3424.137983	15.587700
3417.551917	16.002400
3418.116850	16.150100
3421.647033	15.951900
3429.132567	15.520300
3425.665450	15.722300
3435.993083	15.120300
3427.721450	15.746300
3426.958933	15.802200
3427.923233	15.750600
3426.054100	15.899600
3432.076833	15.717000
3430.752900	15.793700
3428.347833	15.966900
3426.741950	16.067600
3434.123650	15.711800
3438.489083	15.470100
3434.120717	15.758500
3434.346467	15.766300
3437.177917	15.612700
3446.116817	15.123700
3441.564883	15.629100
3439.743783	15.748800
3437.813983	15.888300
3440.350500	15.761000
3453.723700	15.125600
3450.952617	15.302200
3447.133700	15.532100
3443.261283	15.766800
3461.691500	14.821400
3453.489350	15.351800
3454.271783	15.317700
3440.685250	16.167200
3461.735000	14.988200
3465.325000	14.909000
3460.665883	15.208200
3459.129383	15.300000
3460.654400	15.213200
3462.617067	15.134200
3452.948450	15.736400
3457.950450	15.463100
3452.939900	15.789200
3463.065817	15.340300
3466.702667	15.167500
3469.209150	15.041000
3468.872700	15.083000
3467.729950	15.154400
3463.509700	15.437900
3464.215400	15.423500
3469.929100	15.072500
3478.680050	14.506700
3466.040850	15.300800
3470.731050	15.326300
3476.936333	15.069600
3468.226850	15.613400
3468.668100	15.653300
3470.747033	15.548400
3474.137350	15.365000
3471.012383	15.578400
3475.288667	15.355300
3475.998600	15.359600
3471.777667	15.716800
3474.124867	15.623800
3478.438633	15.389700
3477.306250	15.491900
3487.951917	14.919700
3485.327267	15.089200
3483.544667	15.209500
3483.620600	15.242600
3484.383000	15.210500
3478.044633	15.614400
3483.264933	15.322800
3486.605233	15.135300
3489.779617	15.230500
3487.520050	15.463700
3501.912783	14.629500
3485.858283	15.578700
3478.397200	16.048100
3481.557767	15.868300
3493.975350	15.362600
3490.670083	15.615300
3494.055600	15.446600
3496.487933	15.321600
3489.313567	15.898300
3489.377667	15.965800
3497.036117	15.529000
3501.888250	15.263900
3501.725700	15.294200
3496.212633	15.600900
3495.359200	15.674000
3495.678883	15.658800
3501.127400	15.421400
3500.857550	15.692600
3501.893100	15.677300
3493.715417	16.185700
3493.221700	16.253600
3499.412400	15.923600
3506.597200	15.515900
3506.501417	15.534700
3507.761117	15.503200
3511.345383	15.579300
3507.453567	15.856600
3516.585733	15.314400
3510.998117	15.651700
3512.841300	15.581900
3516.246583	15.382200
3518.584150	15.256700
3521.056767	15.135400
3526.302150	15.171500
3516.750967	15.775900
3519.350600	15.635000
3520.962783	15.555000
3516.629900	16.000400
3519.590067	15.839500
3525.939333	15.436800
3514.812217	16.132000
3518.153617	16.021600
3528.006633	15.559200
3527.768433	15.575100
3531.283467	15.362500
3528.793133	15.518100
3531.834467	15.333700
3530.936000	15.404600
3520.403717	16.053400
3530.883633	15.452400
3527.666033	15.774000
3535.211867	15.333100
3533.158833	15.473700
3528.570417	15.771100
3536.429033	15.337500
3532.653017	15.550000
3527.602467	15.847000
3525.008567	16.012000
3532.146133	15.956100
3540.194767	15.577300
3540.137883	15.616500
3543.173650	15.442700
3532.087733	16.126200
3522.232200	16.730000
3545.097950	15.602900
3544.141750	15.667100
3547.261217	15.509200
3546.247783	15.597000
3538.489550	16.211300
3553.378333	15.392400
3553.168433	15.420000
3536.811200	16.402700
3546.211650	15.864200
3544.079433	16.003500
3544.197033	15.990600
3548.789250	15.729800
3539.216700	16.361300
3550.512017	16.011400
3553.050117	15.884800
3559.205317	15.526900
3553.359650	15.909500
3556.967167	15.722500
3555.065333	15.842100
3557.039300	15.742100
3552.505483	16.038900
3559.632917	15.788500
3553.710317	16.183300
3553.280783	16.227000
3559.103783	15.907800
3558.261033	16.127100
3558.747550	16.173200
3563.055283	15.955800
3560.763717	16.114300
3566.693517	15.775900
3562.939083	16.009500
3555.204400	16.646600
3567.763750	15.983900
3561.407017	16.406800
3558.291317	16.654300
3555.410233	16.856400
3565.556800	16.272500
3577.578583	15.597600
3572.500067	15.884800
3560.160600	16.786700
3573.727967	16.175800
3568.220750	16.548200
3570.316017	16.489300
3561.770583	17.036400
3579.277150	16.030100
3576.961267	16.196200
3583.531300	15.811700
3580.757950	15.983300
3587.206750	15.707300
3575.319817	16.439200
3579.956483	16.205400
3574.814067	16.548700
3584.267400	16.082900
3578.439850	16.472900
3581.562850	16.352900
3582.185150	16.339400
3576.130833	16.732800
3587.146017	16.104100
3579.743400	16.700600
3585.733683	16.463400
3595.188733	15.903300
3595.294917	15.904900
3589.218467	16.270600
3590.320417	16.215400
3580.088733	16.877400
3586.991450	16.460900
3588.891700	16.559000
3597.838167	16.189600
3599.824417	16.123600
3593.627117	16.565800
3595.497417	16.461100
3597.869200	16.300400
3595.174367	16.477900
3590.783583	16.760400
3596.932683	16.414200
3591.784683	16.839600
3597.203683	16.547700
3595.991083	16.658700
3602.369567	16.284700
3597.372033	16.666800
3595.552100	16.831700
3589.896183	17.234100
3598.227617	16.755700
3605.748783	16.329300
3602.076717	16.561600
3606.982300	16.545200
3598.211167	17.077300
3606.312283	16.623000
3605.356500	16.699100
3617.480667	16.143100
3618.955083	16.105800
3612.145050	16.539800
3605.479250	16.971200
3614.532417	16.468300
3624.101117	16.037500
3619.246467	16.347700
3617.752950	16.450400
3615.508483	16.603800
3614.847000	16.797200
3614.613383	16.841100
3614.338350	16.901300
3611.481517	17.106400
3626.284367	16.230700
3623.781250	16.387400
3622.609383	16.481100
3622.507700	16.491500
3623.536867	16.436800
3618.420600	16.758500
3631.959667	16.272700
3643.714500	15.669200
3622.573167	16.924600
3629.701417	16.495900
3639.301633	15.939600
3633.424017	16.278100
3623.069183	16.927800
3623.263917	16.921600
3634.914700	16.438400
3637.902317	16.446100
3635.724317	16.613800
3631.658233	16.868100
3635.721433	16.644900
3639.162650	16.463600
3642.206733	16.277400
3629.366917	17.048500
3634.811983	16.770300
3630.389383	17.082000
3634.445400	16.854800
3632.391883	17.008500
3633.831700	16.935500
3638.882833	16.664700
3638.757667	16.719400
3644.566083	16.848300
3645.542450	16.838900
3651.786517	16.479400
3648.935633	16.674900
3653.875333	16.524000
3655.828367	16.460200
3658.057000	16.320200
3658.348917	16.314400
3648.804933	16.916700
3648.413467	16.954300
3656.683900	16.475300
3659.163683	16.330800
3653.455450	16.914800
3654.737450	16.950200
3657.901367	16.791100
3660.891550	16.648700
3661.884033	16.562700
3671.531100	16.014800
3652.052733	17.187300
3658.850517	16.793500
3657.453900	16.970900
3666.776950	16.701500
3670.547400	16.515500
3667.954733	16.659900
3661.157967	17.077600
3671.748167	16.447900
3679.847817	16.026400
3675.738800	16.433000
3669.465533	16.821900
3671.526583	16.736100
3664.367183	17.163300
3669.680583	17.042100
3680.427967	16.417600
3671.667117	16.966900
3664.446967	17.416900
3680.511233	16.634400
3670.998883	17.203200
3677.419733	16.849200
3683.101683	16.529700
3677.704383	16.915200
3680.637083	16.768800
3684.012417	16.595800
3683.021850	16.682000
3689.142633	16.317600
3677.503183	17.037900
3681.076017	16.850800
3678.543283	17.032500
3681.916400	16.946600
3684.026983	17.050800
3688.312000	16.823600
3684.465717	17.068300
3682.139467	17.221600
3685.482567	17.013100
3683.830333	17.154000
3678.142783	17.527800
3693.379217	16.731400
3690.140983	17.154300
3695.279717	16.891900
3703.832100	16.400600
3700.815483	16.599000
3695.547117	16.912000
3697.424117	16.810300
3698.121783	16.795800
3697.344200	16.829300
3691.458933	17.316900
3693.524133	17.241600
3697.826733	17.032800
3699.475950	16.944800
3702.287117	16.935700
3707.390183	16.685100
3708.067450	16.688600
3708.028300	16.713500
3712.019133	16.506300
3708.575183	16.718100
3711.815883	16.728300
3710.006533	16.906800
3710.329367	16.915300
3717.767933	16.495200
3718.827533	16.442100
3714.344683	16.715100
3712.157733	16.873200
3712.160583	16.894500
3716.089067	16.761100
3714.976667	17.083900
3723.602733	16.607700
3724.414833	16.594800
3711.188083	17.410500
3714.026500	17.410100
3718.151617	17.225500
3722.593517	16.985200
3726.887633	16.746300
3729.454000	16.597700
3725.142050	16.865600
3730.108650	16.768400
3730.113583	16.835400
3737.168883	16.440300
3729.622867	16.888600
3731.864717	16.743400
3732.121067	16.718500
3736.834800	16.667600
3729.825483	17.092800
3727.890800	17.229200
3726.202800	17.340200
3722.090333	17.671500
3737.039817	16.890100
3734.679000	17.052200
3729.204633	17.401200
3728.549850	17.457800
3734.861267	17.091400
3734.340983	17.158200
3734.821283	17.225700
3742.137600	16.813700
3741.468800	16.851500
3750.119900	16.327100
3737.787533	17.153400
3743.071500	16.876700
3747.208900	16.663400
3747.597817	16.655500
3748.447283	16.637400
3743.950550	16.934000
3750.899583	16.714800
3749.527150	16.859000
3750.010450	16.850900
3745.761217	17.116000
3752.052650	16.733000
3744.862967	17.187700
3748.586067	17.066200
3749.806667	17.041900
3751.421033	16.997400
3749.008317	17.176900
3753.405150	17.133200
3744.911817	17.781400
3742.858267	17.989300
3749.726200	17.580800
3753.804950	17.339000
3757.143067	17.149600
3754.822983	17.340900
3758.683900	17.326400
3761.794083	17.184900
3760.020583	17.298300
3760.089100	17.276900
3762.643967	17.205100
3761.665667	17.306800
3763.304200	17.254100
3760.035433	17.464800
3760.530600	17.476400
3754.888700	17.836400
3758.343150	17.905400
3757.808083	17.935500
3762.572567	17.658100
3765.550233	17.494800
3769.897483	17.377200
3774.958650	17.111300
3772.534517	17.291800
3773.135017	17.268400
3774.345500	17.228300
3778.056833	17.019300
3773.189967	17.398900
3770.948567	17.592400
3771.187517	17.608000
3778.319150	17.221100
3776.231867	17.349400
3772.792567	17.591800
3773.059150	17.643200
3779.830467	17.420800
3778.849400	17.495600
3784.709700	17.177300
3784.263467	17.228800
3780.893517	17.575600
3784.756700	17.375000
3778.776700	17.759600
3784.207833	17.439000
3779.343417	17.749600
3784.124083	17.488800
3782.010367	17.839900
3784.249600	17.741300
3787.214667	17.584900
3791.420733	17.353200
3788.935967	17.593300
3795.699683	17.220600
3791.313767	17.503300
3789.424550	17.640500
3793.250617	17.448400
3795.171867	17.343700
3782.919133	18.288300
3796.754183	17.506200
3798.201433	17.439900
3792.381450	17.802500
3794.736533	17.740800
3801.266067	17.457400
3796.903333	17.743500
3804.787133	17.276700
3806.374250	17.177600
3796.240700	17.818400
3802.171250	17.539100
3803.941583	17.624400
3809.108017	17.338000
3807.858950	17.453300
3810.312400	17.318000
3805.513533	17.616600
3810.529933	17.347800
3810.142133	17.598900
3823.411150	16.811000
3811.465700	17.535200
3811.479767	17.543500
3821.012283	17.124300
3819.437467	17.269600
3813.529850	17.622200
3814.276033	17.591400
3817.473567	17.419900
3810.872233	17.831400
3822.162117	17.410300
3822.608883	17.401200
3821.070917	17.534800
3824.275833	17.356200
3825.485567	17.349400
3829.127483	17.235900
3827.079633	17.365800
3825.167033	17.485800
3826.075917	17.427700
3826.562833	17.412900
3818.909250	17.939300
3821.989033	17.940600
3816.250167	18.337000
3813.601200	18.512900
3823.889783	17.897400
3827.062533	17.741100
3827.348133	17.722200
3836.971467	17.393500
3840.967500	17.162900
3835.346483	17.495100
3834.927650	17.520800
3841.417517	17.261500
3843.291950	17.208800
3850.475383	16.797000
3844.136900	17.193500
3837.826217	17.584000
3836.481700	17.681300
3840.961933	17.637900
3846.335950	17.319500
3848.182217	17.237800
3836.964167	17.908300
3835.937533	18.087600
3840.064250	17.930600
3844.980700	17.647100
3842.548533	17.809200
3845.086483	17.678100
3844.577183	17.710500
3845.540600	17.763800
3842.404400	18.101600
3852.044417	17.547400
3854.388900	17.409200
3852.732750	17.523200
3852.768067	17.532400
3857.496567	17.433400
3853.682117	17.748100
3852.250700	17.849000
3849.978700	18.006800
3861.846550	17.322500
3855.115117	17.761600
3850.396050	18.074000
3854.838817	17.837800
3851.146450	18.071000
3857.142950	17.729300
3856.637617	17.801200
3870.318600	17.278100
3869.139983	17.354400
3859.416250	17.947400
3861.565917	17.848000
3859.338400	18.070100
3859.876150	18.168800
3869.616850	17.611700
3869.851267	17.606800
3864.592417	17.929900
3865.990017	17.879500
3872.345533	17.524800
3863.398450	18.152300
3867.343133	17.937600
3871.266250	17.740700
3863.793633	18.191100
3869.018283	17.943900
3871.017867	17.882500
3867.945700	18.110000
3863.558433	18.385500
3876.291950	17.678300
3875.781633	17.720100
3875.367300	17.963900
3872.898150	18.155300
3870.444167	18.328000
3880.976833	17.728500
3878.391183	17.942100
3870.918617	18.451600
3882.766633	17.812800
3878.888350	18.078200
3878.719533	18.130200
3881.284817	17.999800
3879.330500	18.241100
3889.583900	17.709800
3882.489917	18.157900
3889.115267	17.777200
3883.456117	18.151900
3884.875033	18.081000
3887.221750	17.997200
3882.036850	18.405200
3887.713433	18.085200
3888.410650	18.077000
3879.205383	18.664200
3888.220317	18.313900
3883.808633	18.624000
3879.912367	18.895000
3885.317333	18.630000
3896.273183	18.032400
3885.882350	18.677600
3897.347350	18.289100
3894.216100	18.488300
3896.171250	18.382400
3894.755383	18.485400
3903.488433	18.117300
3899.735817	18.394300
3911.128800	17.753300
3904.000250	18.181400
3907.517317	18.003100
3901.925767	18.335500
3905.701250	18.200900
3907.716833	18.137400
3907.410183	18.195600
3908.809400	18.118700
3906.368917	18.265900
3912.147417	17.945500
3916.203933	17.743200
3913.509417	17.989300
3910.300083	18.206400
3904.418200	18.602000
3909.580583	18.360900
3917.241617	18.086200
3913.376683	18.353700
3906.825100	18.758600
3911.085067	18.527800
3916.247350	18.262100
3915.128983	18.365400
3920.590650	18.262100
3918.846883	18.432000
3914.794683	18.680400
3923.079200	18.174200
3918.434633	18.491100
3918.080217	18.532900
3923.065983	18.258900
3917.869433	18.582600
3926.311333	18.318900
3930.001050	18.240500
3924.832050	18.557300
3927.588417	18.409600
3923.195217	18.671200
3927.801633	18.379200
3933.040050	18.053300
3925.607317	18.499300
3926.353567	18.612700
3937.523967	18.143500
3934.200100	18.343400
3935.860533	18.273900
3937.426733	18.208800
3940.259650	18.058700
3940.294967	18.064900
3935.545067	18.345400
3931.909283	18.645000
3930.768650	19.008800
3931.271900	19.029500
3935.493200	18.817400
3939.133767	18.611500
3945.094750	18.272600
3944.006833	18.327300
3942.465400	18.422900
3946.981233	18.169800
3947.739583	18.405900
3949.742467	18.356500
3950.329600	18.426200
3948.858650	18.545900
3953.532067	18.291100
3947.538450	18.650900
3948.450250	18.597800
3947.218367	18.694300
3949.949567	18.571900
3949.102083	18.653100
3952.518767	18.590800
3957.132067	18.568000
3949.406033	19.053000
3955.188050	18.736700
3951.323633	18.978900
3961.050950	18.416600
3962.543950	18.322400
3961.753800	18.382700
3957.935350	18.644600
3964.340550	18.544700
3957.834133	18.956700
3961.921150	18.736100
3967.308867	18.406300
3950.283850	19.580300
3959.120767	19.081000
3963.414750	18.853700
3970.186033	18.470100
3965.213400	18.851300
3969.688883	18.601500
3966.512317	18.890200
3973.182217	18.515500
3966.649467	18.931600
3969.777733	18.767100
3981.971467	18.052300
3974.628567	18.508600
3964.148617	19.136200
3968.149550	18.922400
3968.395767	19.269100
3972.568183	19.017900
3977.472883	18.744600
3972.768783	19.041600
3984.073850	18.459500
3990.449567	18.195100
3983.325167	18.639700
3982.864650	18.676400
3982.412783	18.716400
3980.918133	18.832200
3986.607583	18.576000
3984.808467	18.862900
3983.672233	18.961200
3981.544083	19.101300
3987.213383	18.786600
3980.645983	19.200900
3979.977550	19.246400
3988.510883	18.765000
3985.784483	18.932700
3989.499000	19.023500
3987.783433	19.203600
3991.654083	18.961800
3992.657000	18.934100
3987.709800	19.250600
3991.741717	19.039000
3992.396467	18.993100
3988.610633	19.243500
3991.463717	19.108300
3993.729400	18.991700
3998.770383	18.715800
3996.349517	18.878500
4006.035567	18.377500
3999.593367	18.714700
3988.227467	19.930000
4002.490667	19.148500
4008.448950	18.870500
4008.333933	18.932100
4002.718283	19.306200
4010.902100	18.860000
4012.415667	18.784300
4005.664433	19.202700
4005.689050	19.230200
4005.159917	19.321600
4000.440833	19.642200
4004.571483	19.479600
4002.825950	19.621400
4014.488033	18.963000
4008.700617	19.323100
4013.291817	19.219900
4025.897067	18.504100
4024.370983	18.659700
4024.269250	18.680900
4016.380117	19.159600
4022.006717	18.824800
4027.429567	18.677200
4022.676800	18.974000
4027.288800	18.711800
4025.573517	18.812800
4028.965633	18.784800
4027.575950	18.899300
4028.389500	18.849500
4035.273417	18.441100
4029.798483	18.856500
4033.892150	18.729500
4028.885467	19.049500
4030.550100	18.969500
4025.888483	19.284900
4038.208733	18.592200
4030.616933	19.051800
4037.324017	18.661900
4039.824850	18.566300
4042.512133	18.558000
4046.100150	18.351200
4035.806667	18.986800
4033.634117	19.136500
4037.298667	19.084600
4049.482150	18.394400
4040.369067	18.985900
4042.146817	18.894100
4036.300367	19.288900
4043.474950	18.864800
4044.633267	18.965500
4045.679350	18.953000
4044.053383	19.141500
4038.700900	19.468400
4043.924833	19.211400
4047.061817	19.050100
4049.220750	19.045700
4055.915000	18.716300
4055.692050	18.718400
4056.207500	18.717500
4061.297300	18.530900
4058.178783	18.786600
4050.818950	19.246400
4048.937983	19.426500
4055.182667	19.087300
