#Y dist(nm)	Y force(pN)
4038.055067	20.122300
4059.859633	18.848700
4066.277650	18.541400
4065.402117	18.621700
4053.837200	19.372400
4065.883900	18.657500
4065.177433	18.691200
4062.896417	18.852700
4059.371800	19.239500
4063.704500	19.041800
4057.620850	19.517900
4063.141967	19.209700
4063.486700	19.224800
4062.727483	19.271100
4071.773567	18.946600
4062.488983	19.498200
4066.232517	19.321600
4064.801817	19.421800
4064.819733	19.567200
4064.581633	19.657200
4081.597800	18.710300
4069.393267	19.452700
4067.921167	19.594300
4072.126717	19.349800
4070.135517	19.502800
4074.621867	19.321000
4072.611367	19.482100
4074.844750	19.412000
4076.083000	19.344500
4075.493850	19.390100
4074.638167	19.497700
4070.687100	19.878200
4085.716150	18.993800
4077.223783	19.533000
4081.981233	19.311900
4079.658700	19.608500
4083.181533	19.437000
4087.700267	19.236700
4083.085533	19.530600
4085.422583	19.424100
4087.811317	19.294600
4091.654850	19.227200
4086.856367	19.551100
4095.502150	19.114400
4090.474283	19.408200
4091.197850	19.381400
4093.128317	19.283500
4105.012933	18.744600
4097.733383	19.199400
4091.705067	19.562800
4093.062517	19.492900
4089.956517	19.763200
4090.868000	19.835000
4096.925533	19.517400
4094.766800	19.694000
4100.827633	19.355100
4090.036700	20.016500
4088.092883	20.196600
4094.267717	19.963300
4108.154700	19.159400
4095.086417	20.000200
4097.441400	19.874300
4107.290033	19.283700
4103.853700	19.489400
4099.591100	19.823300
4103.466000	19.601000
4102.652017	19.695700
4096.417150	20.094800
4111.986833	19.230900
4102.493900	19.833800
4117.309900	19.033100
4108.686400	19.584500
4105.352567	19.849600
4111.124533	19.525500
4112.178933	19.682400
4114.003617	19.629700
4113.856467	19.674700
4115.940800	19.553000
4115.983783	19.635300
4114.758417	19.842400
4109.712767	20.182600
4115.301150	19.880000
4123.154767	19.399900
4120.378933	19.585800
4117.227317	19.807900
4119.219100	19.846100
4114.818450	20.146100
4119.477133	19.907400
4115.399133	20.162100
4128.929700	19.367000
4126.874667	19.502500
4129.225683	19.540800
4133.682700	19.314800
4122.318933	19.971900
4124.310133	19.899300
4138.016633	19.232100
4134.329150	19.510400
4136.884133	19.405500
4131.972317	19.723300
4132.005150	19.758200
4126.600083	20.101800
4121.208533	20.609700
4129.979650	20.107700
4140.537833	19.497300
4132.621167	19.975900
4137.422733	19.800900
4140.156233	19.709700
4137.363167	19.935700
4137.436400	19.990700
4147.241733	19.416000
4143.194783	19.667100
4146.097300	19.537100
4145.153800	19.738100
4149.502200	19.502300
4144.847083	19.858800
4134.111867	20.521900
4140.726033	20.145300
4146.885000	19.784600
4148.337433	19.865100
4148.157533	19.897800
4153.430333	19.576200
4145.280133	20.052600
4151.400533	19.852800
4147.258550	20.162900
4153.451933	19.870500
4149.691967	20.093200
4150.585883	20.010000
4150.685750	20.020700
4156.177083	19.820700
4159.132933	19.726800
4151.741217	20.234200
4152.367783	20.200500
4150.793050	20.327900
4156.930717	19.960300
4151.663400	20.188700
4149.505067	20.339800
4158.570333	19.781700
4158.474600	19.804100
4162.620550	19.527200
4156.107183	19.827900
4157.399767	19.753900
4159.354550	19.595600
4158.517083	19.633800
4158.211667	19.627000
4160.430117	19.503100
4164.750783	19.257000
4159.246200	19.571600
4160.872767	19.486900
4157.866433	19.667700
4155.760683	19.590000
4154.294483	19.698600
4151.552850	19.902200
4146.651817	20.197900
4150.293333	19.985400
4150.311783	19.989000
4146.828233	20.232600
4155.124550	19.737200
4151.684533	19.739400
4151.203900	19.703300
4148.930917	19.845400
4158.169350	19.295600
4147.952467	19.812400
4148.144833	19.758000
4151.205033	19.589100
4150.651450	19.619000
4152.002000	19.557200
4150.304833	19.659900
4150.316833	19.572600
4154.853400	19.130000
4153.527033	19.158300
4153.355750	19.191800
4147.342133	19.553400
4151.453567	19.310500
4156.171433	19.027800
4148.100467	19.521700
4139.837217	20.034100
4152.000833	19.332600
4143.142400	19.814600
4141.361883	19.593300
4148.105767	19.180000
4137.676300	19.797500
4139.827067	19.669600
4139.011117	19.594300
4138.395400	19.630100
4142.812133	19.394400
4138.033233	19.677600
4144.111917	19.265200
4144.934433	19.206900
4153.864117	18.677500
4143.459717	19.301800
4148.658550	19.012100
4139.011683	19.596900
4144.397533	19.090800
4131.765333	19.833600
4131.573750	19.835600
4128.387200	20.030300
4128.603767	19.867000
4132.904500	19.598900
4137.809233	19.311900
4132.498900	19.609400
4133.983467	19.443400
4128.225583	19.701300
4133.502300	19.381700
4127.682400	19.751000
4127.803917	19.728400
4130.583700	19.444400
4127.476550	19.623200
4131.377083	19.403400
4130.614583	19.455300
4130.925833	19.444200
4118.060500	20.228600
4119.939650	20.145800
4127.086917	19.727200
4125.968650	19.799600
4131.474100	19.467800
4127.953550	19.374800
4127.511550	19.298900
4130.593783	19.077300
4125.769400	19.359800
4121.242617	19.623700
4128.470200	19.202000
4124.901350	19.420700
4120.725467	19.666600
4128.200333	19.129800
4125.147567	19.213000
4119.760467	19.516000
4122.222600	19.376000
4123.078350	19.315100
4117.432100	19.498400
4110.837050	19.899200
4115.112617	19.668400
4115.099933	19.679100
4117.716450	19.347800
4111.009633	19.755600
4113.655183	19.617600
4108.821367	19.934500
4118.232750	19.346000
4117.640050	19.347800
4120.591967	19.171600
4120.483550	19.143200
4105.543867	19.885900
4111.202683	19.527900
4108.604350	19.690700
4112.612417	19.439800
4113.199083	19.299600
4110.539400	19.396100
4120.420133	18.785100
4116.462383	19.010100
4114.425683	19.142400
4111.762733	19.287600
4109.711233	19.405500
4117.791133	18.906900
4116.172917	19.003900
4111.310500	19.284500
4116.956000	18.912500
4103.049500	19.354700
4108.329067	19.040800
4103.841517	19.300600
4106.247233	19.162500
4108.466083	18.886800
4105.680150	19.058600
4100.416117	19.386400
4097.197600	19.595600
4101.710767	19.157200
4102.715483	19.099500
4101.743083	19.160700
4093.052533	19.687800
4091.569067	19.680700
4099.819533	19.145100
4097.931283	19.249500
4093.635517	19.509700
4094.957900	19.418600
4104.016200	18.881000
4097.876367	19.269100
4102.101600	19.022900
4095.200450	19.434500
4099.221767	19.198600
4097.595917	18.922900
4088.582000	19.466600
4097.034033	18.962700
4096.312367	19.000300
4097.683483	18.881700
4097.964383	18.744000
4099.672683	18.645000
4098.136933	18.710700
4096.223383	18.834300
4081.929750	19.689500
4090.625217	19.190800
4088.818800	19.305500
4086.969517	19.428700
4089.848967	19.134700
4080.524800	19.683500
4083.314433	19.524600
4086.137983	19.345200
4090.111817	19.083400
4088.583700	19.182200
4085.640217	19.165000
4080.793867	19.399900
4074.257400	19.802000
4078.047100	19.586600
4080.445733	19.444200
4086.277017	19.098700
4081.303283	19.263900
4084.574200	19.043900
4078.742250	19.372400
4082.850117	19.105600
4081.849583	19.085100
4080.262250	19.143200
4078.622850	19.219700
4076.063417	19.368400
4070.840217	19.672600
4076.265083	19.346400
4078.917517	19.106500
4070.899667	19.438600
4068.792250	19.532000
4067.939300	19.559000
4069.698617	19.433500
4071.948883	19.155000
4075.402050	18.921200
4075.675033	18.867000
4070.975333	19.129800
4070.636167	19.134700
4075.179333	18.852000
4061.724467	19.448800
4057.457150	19.712300
4063.790550	19.326800
4072.802700	18.798500
4068.031967	19.102600
4073.428833	18.775500
4066.365667	19.145500
4066.430267	19.114900
4068.228050	18.998600
4069.084933	18.935400
4070.858500	18.802700
4068.939083	18.939600
4074.646450	18.594800
4068.783617	18.938200
4061.366200	19.212500
4067.961350	18.581000
4068.315067	18.552100
4058.716267	19.138300
4063.483550	18.849500
4070.308983	18.296700
4054.607433	19.220700
4055.392367	19.172200
4057.153500	19.063100
4060.921650	18.683600
4054.379367	19.006900
4049.113183	19.303200
4053.084933	19.071900
4057.099400	18.855500
4066.050217	18.316900
4047.682683	19.401300
4061.988950	18.545300
4051.416283	19.185900
4052.790067	19.106800
4049.137550	19.220900
4052.501850	18.953300
4049.407667	19.127500
4059.104533	18.548400
4059.793233	18.465600
4052.383350	18.878900
4055.303367	18.673600
4054.779133	18.680400
4050.832383	18.785100
4051.074950	18.652400
4052.955917	18.519100
4046.450350	18.751400
4044.185617	18.857200
4040.502967	19.079500
4043.218200	18.902000
4045.897483	18.738900
4050.383283	18.473400
4042.305783	18.765000
4045.797750	18.509300
4045.919600	18.503900
4041.945650	18.740900
4046.075500	18.470600
4042.823850	18.661400
4035.492333	19.128300
4045.583417	18.544600
4051.202233	18.201900
4046.482417	18.466300
4031.844350	19.024100
4039.011883	18.537900
4040.370933	18.444600
4041.735450	18.365000
4043.907100	18.242000
4033.536533	18.853200
4038.374200	18.576800
4036.754617	18.674500
4039.628683	18.411000
4026.109300	19.085300
4028.633133	18.864600
4035.241183	18.408300
4031.510933	18.637500
4037.136767	18.301900
4032.857117	18.570100
4036.248217	18.380800
4031.048117	18.635500
4025.172833	18.924300
4026.664417	18.819700
4030.648200	18.589400
4033.221667	18.431800
4024.965950	18.902000
4022.183467	19.078900
4030.669500	18.561500
4019.549833	19.219500
4032.364100	18.195200
4025.824017	18.498100
4019.858700	18.828500
4027.224950	18.378800
4024.990250	18.494000
4022.664783	18.634800
4021.898767	18.677500
4029.009500	18.262700
4022.519650	18.643700
4014.848167	19.120900
4023.408233	18.402300
4018.057783	18.607200
4024.011383	18.237600
4029.818417	17.880400
4022.696783	18.298800
4016.698583	18.652500
4014.948750	18.756500
4018.246683	18.561000
4020.172083	18.410700
4021.933767	18.176800
4020.706233	18.237600
4026.018767	17.907400
4023.293850	18.062000
4016.661333	18.440400
4019.175017	18.260500
4013.186367	18.521500
4011.867650	18.576800
4013.670233	18.439200
4017.797533	18.170700
4012.814050	18.283700
4012.637350	18.230600
4016.873200	17.947400
4013.173300	18.164900
4010.267517	18.329200
4015.920633	17.964000
4000.700767	18.660700
3999.051650	18.738800
4008.455750	18.195200
4003.211000	18.523700
3998.791700	18.740900
3998.230267	18.745300
4002.228833	18.471900
4003.063383	18.438600
4003.446050	18.410600
4002.210917	18.475000
4005.634650	18.236600
3999.548533	18.527400
3998.835267	18.553600
3998.711217	18.552100
3998.881350	18.533900
4001.742650	18.351800
4002.841600	18.285200
4000.132917	18.427300
3997.674000	18.563900
3999.490700	18.435500
3998.754033	18.467700
3992.007300	18.697700
3995.668283	18.462300
4001.537550	18.056900
3996.801183	18.300000
3998.003833	18.210900
3999.346517	18.107200
3988.769517	18.559900
3996.748483	18.027300
3989.124283	18.444600
3991.734750	18.289400
3989.496933	18.414600
3984.675567	18.685000
3991.594817	18.255100
3991.344667	18.305800
3985.857917	18.654700
3984.291383	18.733500
3984.376650	18.545300
3991.624000	18.100100
3983.379783	18.571500
3989.010883	18.196500
3992.516983	17.883600
3981.258100	18.447200
3992.623483	17.727900
3987.660900	18.002900
3986.258333	18.056100
3986.590217	17.899900
3985.889950	17.924000
3982.241483	18.104700
3981.612167	18.140200
3989.512717	17.656000
3986.666033	17.815200
3979.832317	18.184000
3984.864517	17.878300
3973.562050	18.262100
3976.607950	18.035900
3973.826500	18.186800
3976.810150	18.011000
3972.445433	18.278100
3975.856333	18.083700
3976.493283	18.026100
3971.214567	18.335500
3975.960533	18.036900
3974.958417	18.103600
3973.803500	18.070400
3972.012700	18.093200
3970.235733	18.174000
3976.648067	17.786500
3969.495517	18.140200
3968.018133	18.150600
3965.045183	18.337800
3970.838550	17.970800
3976.382317	17.571700
3959.714867	18.462100
3970.384117	17.797300
3974.073933	17.598000
3974.541100	17.525000
3965.620517	17.921500
3961.559050	18.158000
3956.595400	18.401900
3961.315033	18.090300
3956.516217	18.376900
3953.339850	18.576800
3963.396250	17.897600
3969.144483	17.508900
3955.597350	18.300500
3961.845250	17.922500
3961.805067	17.897800
3964.302417	17.743300
3960.064383	17.800500
3957.455267	17.931400
3954.044183	18.121500
3954.360950	18.092300
3953.105233	18.081300
3948.482333	18.276300
3950.643683	18.150600
3948.709117	18.267700
3949.667100	18.231500
3955.230800	17.923100
3962.359083	17.445300
3954.057067	17.758600
3950.120783	18.014700
3956.329517	17.633500
3960.706917	17.372500
3947.326283	18.103500
3949.017167	17.983300
3951.590400	17.787200
3947.261683	18.035100
3948.740217	17.920000
3957.572583	17.376900
3934.326267	18.619900
3949.585783	17.720100
3952.011467	17.529700
3948.384100	17.739500
3948.260000	17.607200
3943.912583	17.806800
3936.830800	18.234800
3941.150750	17.957900
3939.628250	18.066800
3945.029700	17.734400
3943.732950	17.699600
3946.534883	17.406000
3938.551950	17.892800
3937.500233	17.956800
3935.146350	18.085700
3931.384650	18.316100
3937.440083	17.949000
3939.784117	17.728600
3930.993750	18.259700
3945.094667	17.402500
3936.903083	17.903700
3943.111450	17.300900
3933.024450	17.858600
3940.436317	17.391400
3934.333317	17.744800
3930.483467	17.965300
3935.975450	17.632700
3940.647400	17.256800
3935.130500	17.581400
3938.623433	17.345100
3941.738500	17.134400
3931.622000	17.622200
3933.877200	17.421200
3921.237950	18.160700
3923.284033	18.044100
3932.270367	17.508700
3934.561817	17.381500
3928.774617	17.584000
3924.470850	17.744600
3927.733583	17.538300
3926.919983	17.589300
3926.817517	17.591500
3920.995050	17.807900
3918.933333	17.938200
3920.672133	17.829000
3924.905117	17.595100
3923.389650	17.701100
3923.268467	17.698000
3912.528367	18.154600
3913.978250	18.077000
3918.652600	17.802800
3922.586867	17.557300
3914.921833	18.026400
3919.110650	17.777900
3925.311133	17.171100
3917.465183	17.631900
3914.049367	17.835100
3908.248217	18.176800
3910.780433	17.954400
3912.857050	17.763500
3913.147767	17.750200
3915.406917	17.619100
3919.643250	17.372300
3920.480933	17.300700
3907.124550	17.873900
3908.845433	17.790000
3910.000767	17.702200
3910.679633	17.641500
3912.589883	17.497500
3915.682867	17.175700
3911.044483	17.443200
3915.652817	17.191300
3909.464950	17.575400
3917.370117	17.113900
3908.057133	17.613900
3906.284617	17.554000
3907.659867	17.451400
3907.370767	17.473000
3906.682483	17.511300
3912.258300	17.167400
3909.463283	17.353500
3899.835833	17.688600
3897.438617	17.812600
3903.808333	17.397000
3900.554383	17.591400
3899.560083	17.506800
3898.519900	17.539400
3902.279300	17.276000
3901.738867	17.319700
3903.189017	17.257900
3902.600950	17.294900
3895.759733	17.627400
3899.307667	17.414200
3898.436200	17.486600
3899.674433	17.399400
3900.452733	17.262300
3898.163333	17.297700
3892.814617	17.602000
3895.882167	17.395300
3900.628967	17.097700
3893.159667	17.523400
3898.709550	17.171900
3893.158450	17.275100
3885.822383	17.688900
3890.951467	17.388100
3890.078700	17.462900
3892.547950	17.155400
3889.108083	17.315700
3889.075317	17.321500
3876.659183	18.062100
3888.339850	17.367800
3888.078867	17.355700
3886.747117	17.324500
3889.909000	17.105600
3873.880050	18.028700
3885.879083	17.322300
3886.456600	17.307500
3890.274500	17.074100
3894.049617	16.730500
3885.720200	17.234600
3881.789017	17.451100
3874.561667	17.893000
3878.923033	17.556000
3885.199850	17.092100
3873.773967	17.760700
3875.612267	17.663500
3878.006767	17.524900
3880.060917	17.356600
3878.344083	17.418300
3882.611100	16.974200
3879.853917	17.118700
3871.654517	17.598700
3871.576450	17.611700
3869.653133	17.609100
3868.051367	17.674000
3873.820333	17.315400
3864.265367	17.879200
3878.204983	17.051700
3878.678517	17.002600
3878.640417	16.894300
3868.680200	17.441600
3867.412933	17.510700
3881.414567	16.643800
3871.125750	17.236700
3867.674717	17.455900
3869.390400	17.176400
3869.118600	17.115800
3869.971667	17.062000
3866.867917	17.238100
3865.995950	17.263400
3864.173200	17.252000
3863.275950	17.286500
3863.714367	17.253100
3866.087950	17.110100
3863.976283	17.242200
3865.309667	17.134900
3863.385367	17.259100
3863.076750	17.293100
3865.876767	17.110000
3860.731233	17.400900
3862.069500	17.221100
3860.304417	17.297800
3863.352717	17.071900
3853.209483	17.677500
3862.393167	17.107000
3867.444717	16.804000
3852.813633	17.446500
3862.772850	16.818200
3861.491983	16.865100
3859.373033	16.966200
3853.447733	17.191500
3849.640600	17.362400
3842.425383	17.779500
3860.897883	16.671300
3858.135467	16.804000
3848.120350	17.384000
3856.651350	16.687100
3848.735483	17.097000
3856.149000	16.625600
3845.840233	17.225400
3852.730100	16.808900
3849.887817	16.970200
3848.060633	16.856400
3839.266550	17.384900
3837.742950	17.466500
3840.464483	17.321100
3846.998100	16.880900
3839.904433	17.193300
3832.564750	17.632700
3839.325817	17.230000
3848.153150	16.747100
3841.695467	17.118700
3843.411900	17.013800
3840.757067	16.939000
3840.389233	16.958700
3838.083700	17.092100
3845.603583	16.657800
3837.293583	16.997100
3846.235450	16.435400
3857.925683	15.728700
3834.451500	17.121800
3837.437900	16.967000
3834.212600	17.168900
3835.288150	16.941200
3833.028183	16.991100
3819.771400	17.763800
3833.215350	16.967900
3834.591933	16.886100
3832.852883	16.977900
3824.651883	17.365800
3822.460500	17.374400
3824.672433	17.238300
3822.176383	17.407500
3822.259917	17.380900
3829.530950	16.880000
3824.843800	17.143400
3820.401183	17.398800
3821.888317	17.316700
3830.535200	16.785500
3828.495950	16.916900
3820.543300	17.185100
3817.551233	17.351100
3822.509950	17.058200
3828.034500	16.720700
3819.504167	17.097700
3822.320150	16.870700
3817.468067	17.127400
3816.463133	17.181600
3825.744017	16.622800
3813.671017	17.362900
3836.718267	15.796900
3818.209000	16.873700
3816.281900	16.986200
3813.719150	17.131400
3817.453217	16.862200
3812.978917	16.996300
3809.700550	17.183600
3816.445800	16.779200
3812.269000	17.031500
3807.386783	17.325300
3803.636700	17.521700
3803.507800	17.307500
3798.642500	17.643200
3810.695533	16.910700
3802.679050	17.387900
3812.993550	16.793000
3809.514900	17.003300
3807.753633	16.967100
3803.000633	17.233200
3803.502817	17.208400
3796.629850	17.604500
3798.975367	17.290900
3802.867000	16.996100
3797.712167	17.281300
3797.885017	17.268400
3801.503167	17.045200
3803.039700	16.931000
3808.094000	16.524200
3802.341183	16.827600
3795.483583	17.209800
3792.063917	17.423500
3797.676200	17.018600
3798.358700	16.874600
3789.280600	17.328500
3795.730200	16.994900
3797.010083	16.909800
3791.188900	17.251700
3794.417933	17.028000
3792.696167	16.927000
3792.119167	16.957600
3804.433783	16.195500
3796.925783	16.630500
3796.103217	16.546600
3789.059867	16.939000
3788.895933	16.933800
3791.898000	16.735100
3794.689133	16.566000
3789.367733	16.880400
3794.463633	16.502400
3792.712683	16.573200
3790.985500	16.627400
3795.963583	16.318800
3791.809833	16.575300
3800.347667	16.057900
3780.374167	17.125000
3787.206267	16.600300
3784.144067	16.769500
3781.462117	16.913500
3780.611717	16.945600
3781.622100	16.821200
3781.292250	16.846700
3789.459617	16.358800
3780.173100	16.876400
3775.578433	17.148300
3773.248033	17.266200
3774.295667	16.925500
3780.536050	16.539500
3769.766550	17.154800
3775.174683	16.829100
3774.340317	16.733500
3780.099633	16.356900
3770.059650	16.929800
3766.430583	17.160600
3772.798017	16.774000
3779.126383	16.410000
3773.493967	16.598200
3772.302250	16.626800
3776.768450	16.364600
3771.130183	16.693800
3778.938733	16.248000
3776.573983	16.350300
3772.853467	16.579900
3776.313100	16.385000
3776.361900	16.110800
3771.124600	16.310300
3764.492183	16.700700
3772.731350	16.210400
3765.358067	16.676500
3773.625283	16.172700
3773.198550	16.187300
3771.788650	16.301000
3758.261683	17.015700
3759.023417	16.735000
3759.695267	16.650700
3759.365717	16.673200
3761.451017	16.525600
3754.969650	16.773800
3749.711850	17.086400
3755.063817	16.752100
3753.063400	16.880900
3757.485100	16.597700
3761.742600	16.350800
3762.342400	16.280000
3753.750400	16.784600
3752.352667	16.548700
3758.115033	16.175400
3760.730950	16.006700
3748.855100	16.714100
3755.485150	16.322000
3753.271000	16.438100
3751.825583	16.418100
3749.466550	16.522700
3746.697517	16.685800
3750.057117	16.479400
3756.261633	16.094700
3750.671417	16.426900
3749.930650	16.497500
3751.704117	16.404100
3754.328700	16.204100
3740.255800	16.917500
3747.126633	16.479600
3748.987117	16.355500
3744.251317	16.588900
3749.275733	16.131300
3745.520150	16.344500
3742.994333	16.488600
3740.876750	16.623200
3736.097700	16.880900
3738.406483	16.734600
3746.542850	16.234400
3742.515250	16.444100
3732.951700	16.708400
3742.152400	16.126700
3734.242317	16.599700
3740.933583	16.211700
3730.962300	16.655900
3741.792300	15.970400
3729.310833	16.711200
3727.783800	16.811000
3728.704200	16.748900
3729.309483	16.697700
3727.947267	16.783000
3728.815100	16.737200
3732.612400	16.498400
3734.429633	16.377600
3726.436283	16.510200
3720.950267	16.812700
3726.968383	16.421100
3724.661583	16.558800
3727.285967	16.372000
3733.340833	15.962100
3727.476267	16.277500
3730.397883	16.063800
3728.127450	16.180700
3722.415083	16.520700
3724.170833	16.406700
3725.113417	16.309900
3728.066283	16.116900
3727.138000	15.875300
3723.581317	16.053100
3720.581717	16.208200
3712.662900	16.695800
3729.378267	15.695500
3716.338817	16.499800
3721.521133	16.184400
3721.986500	16.125800
3705.377433	16.785600
3712.491583	16.338900
3708.965167	16.529800
3708.264067	16.578700
3713.784117	16.172500
3714.247633	16.054200
3708.388550	16.384400
3709.018967	16.349200
3715.716767	15.941200
3707.932733	16.401000
3709.701333	16.225500
3699.930100	16.667000
3711.958117	15.949000
3703.351833	16.449900
3705.941100	16.300400
3704.822817	16.408000
3707.076817	16.273000
3704.740350	16.404200
3703.289350	16.448000
3701.725717	16.275400
3705.351267	16.022800
3700.011367	16.337200
3701.809967	16.222600
3697.052533	16.514700
3698.930667	16.419100
3697.073700	16.369700
3702.015767	16.010200
3697.552483	16.258500
3699.806467	16.113700
3698.614217	16.171900
3698.556083	16.168200
3691.817600	16.417700
3694.292783	16.197900
3687.806950	16.587200
3700.476833	15.823200
3691.687900	16.355300
3699.981400	15.858800
3692.564950	16.220300
3695.145017	15.914800
3697.530400	15.737300
3694.315683	15.931200
3697.559567	15.716800
3700.997983	15.498000
3692.819817	15.973600
3704.422667	15.286600
3698.112050	15.592400
3701.859317	15.103300
3687.329733	15.924300
3689.709117	15.772900
3689.665567	15.769000
3697.271583	15.297600
3689.410450	15.765500
3688.712633	15.789900
3683.051317	16.129300
3682.993217	15.984400
3679.425267	16.192300
3680.382867	16.132600
3678.533317	16.248700
3683.103483	15.916500
3673.991083	16.427400
3680.174133	16.014600
3681.777933	15.918600
3682.903433	15.834000
3674.211767	16.349800
3678.056183	16.016400
3677.716017	15.910900
3674.098583	16.094400
3678.265450	15.843800
3669.048900	16.394900
3671.583183	16.222200
3678.116750	15.836600
3679.355917	15.742600
3673.487900	16.016600
3671.897067	15.850600
3674.082450	15.673700
3673.973217	15.664600
3671.055283	15.831000
3674.406633	15.614700
3671.094167	15.817900
3670.262433	15.860400
3670.091583	15.882900
3672.057733	15.436800
3661.531100	16.026500
3671.338217	15.431500
3670.652367	15.464200
3662.269617	15.782200
3659.926567	15.905800
3669.020433	15.360900
3659.419683	15.940500
3651.503450	16.310900
3652.954350	16.166000
3661.236883	15.666600
3652.972617	16.156900
3663.345517	15.456400
3656.592650	15.769400
3660.924650	15.521600
3661.543433	15.498600
3661.747033	15.441900
3659.409483	15.443400
3658.293983	15.495600
3655.063500	15.678200
3657.990083	15.480300
3656.159817	15.589600
3651.187017	15.876700
3657.412150	15.527300
3657.806967	15.484900
3651.404067	15.859900
3651.769750	15.836600
3651.698617	15.486700
3651.216667	15.478900
3644.473467	15.871600
3646.206583	15.753000
3651.632150	15.265400
3646.801500	15.533600
3648.904650	15.387200
3651.820300	15.199700
3645.424783	15.464700
3645.951350	15.373400
3638.494767	15.817900
3638.062400	15.865100
3651.058517	15.109000
3643.323550	15.584000
3641.493800	15.692900
3644.617033	15.477000
3646.494467	15.363100
3644.326483	15.465900
3641.585133	15.584100
3638.292917	15.641800
3641.200733	15.447600
3634.686850	15.822800
3631.948933	15.985800
3635.732867	15.748300
3636.384417	15.705100
3638.593600	15.544100
3639.299883	15.499200
3627.819633	15.842400
3623.392217	16.082800
3621.792483	16.159500
3621.027000	16.232000
3623.433083	15.929100
3628.811500	15.614000
3632.584500	15.370100
3634.506400	15.254900
3634.266183	15.144900
3628.641883	15.391500
3629.404467	15.304600
3630.080000	15.255800
3625.827833	15.479400
3629.238950	15.287600
3628.265983	15.318600
3632.388767	15.034000
3633.651550	14.939000
3625.331833	15.441600
3618.346067	15.839800
3619.224983	15.627300
3615.860683	15.787800
3611.816683	16.056300
3623.770167	15.328900
3609.210250	16.176500
3619.728083	15.555000
3622.373567	15.386800
3615.057817	15.817900
3624.375450	15.084800
3617.371833	15.453600
3618.547250	15.375200
3618.656883	15.350400
3620.367383	15.222600
3624.838017	14.949100
3614.950350	15.523400
3607.455367	15.980800
3611.245000	15.723500
3607.558700	15.930800
3619.976250	15.178700
3619.539867	15.198400
3603.628650	16.084400
3606.725333	15.738600
3608.352133	15.614100
3609.289167	15.506500
3614.481400	15.182900
3607.907767	15.558400
3614.986100	15.094100
3611.459867	15.077500
3607.762650	15.253100
3604.246317	15.437200
3603.181500	15.478700
3598.625933	15.567300
3600.424233	15.431700
3602.460033	15.283500
3600.790900	15.377300
3595.776700	15.538400
3598.481683	15.321900
3599.424467	15.234700
3594.244483	15.540600
3601.900883	15.057000
3599.679300	15.173300
3595.257767	15.167500
3605.008500	14.576000
3598.890267	14.926900
3598.129217	14.969500
3597.503333	14.951100
3594.468950	15.084200
3591.925733	15.246600
3591.782333	15.249300
3589.617717	15.372400
3591.523900	15.257000
3593.604583	15.080700
3590.178900	15.117500
3596.109567	14.721700
3590.504417	15.034000
3591.497167	14.975500
3591.232433	14.966400
3588.318750	15.122600
3581.259317	15.319600
3582.033333	15.280800
3581.045950	15.322100
3573.764900	15.765500
3587.754183	14.840700
3580.742700	15.215300
3581.590983	15.172800
3576.483483	15.445800
3581.199667	15.168100
3589.126467	14.682700
3567.216050	15.875600
3579.366133	15.165300
3584.616500	14.829800
3586.290100	14.708600
3576.509867	15.192700
3580.466983	14.836500
3579.349550	14.867300
3577.716800	14.959100
3570.794967	15.380200
3568.424750	15.516200
3576.009500	15.049700
3564.450233	15.527700
3571.519917	15.096700
3569.910717	15.231100
3578.058900	14.719700
3571.003517	14.981500
3568.955167	15.060700
3561.418900	15.510800
3574.596117	14.733400
3564.705717	15.308200
3569.627667	15.025000
3569.246033	14.968200
3563.858900	15.261200
3558.512633	15.576600
3567.937050	14.996600
3565.514000	15.141800
3558.365250	15.575600
3571.033783	14.685000
3563.869883	15.127200
3568.141183	14.847600
3564.287183	15.056100
3557.401650	15.362000
3560.169600	15.108500
3553.125417	15.518200
3554.134283	15.427800
3551.090633	15.596700
3558.387750	15.162800
3553.404367	15.408100
3558.191400	14.952800
3556.136283	15.051300
3554.188950	15.169400
3554.255667	15.188500
3554.361017	15.058900
3554.351883	15.013500
3552.510017	15.124600
3553.129017	15.098500
3559.191967	14.703100
3554.484950	14.985500
3549.404950	15.108500
3543.095733	15.418500
3545.100467	15.286600
3547.425467	15.148600
3544.225933	15.303900
3542.676867	15.411400
3545.959700	15.186800
3542.736517	15.376300
3538.899433	15.318900
3548.027533	14.722500
3543.665500	14.963000
3547.449483	14.734200
3546.783967	14.762500
3542.278317	15.043600
3551.277750	14.443700
3536.237317	15.134200
3541.028183	14.830500
3543.828033	14.649600
3546.357217	14.501800
3539.338683	14.910000
3536.540650	15.077300
3538.189767	14.992300
3531.988783	15.366000
3527.268433	15.345900
3537.142117	14.723200
3531.134783	15.082200
3527.724100	15.292700
3532.938483	14.985900
3531.898850	15.041600
3529.490883	15.074700
3525.366750	15.236000
3526.035850	15.235700
3525.698833	15.222300
3533.099267	14.781400
3527.251167	15.116200
3519.141500	15.419300
3527.710117	14.852800
3522.983417	15.144400
3526.562667	14.944300
3526.673900	14.922200
3521.158150	15.168800
3530.315517	14.611600
3528.279317	14.705200
3522.299333	15.069900
3525.030333	14.883300
3524.075367	14.930800
3520.225050	14.975600
3516.711417	15.139300
3528.381683	14.423400
3525.402667	14.581600
3524.068433	14.635200
3513.799867	15.266800
3518.346600	14.974100
3516.718650	15.071300
3504.592300	15.547100
3504.892817	15.478300
3508.644100	15.256700
3516.189300	14.790500
3510.582650	15.121400
3511.282650	15.077300
3515.007933	14.848800
3518.374617	14.632000
3516.390900	14.664800
3517.238183	14.554800
3510.225450	14.944400
3513.376667	14.752900
3517.574917	14.489200
3508.885533	14.974800
3511.221233	14.811600
3512.100800	14.755700
3507.686417	14.869600
3508.547317	14.584600
3504.581450	14.798000
3512.244633	14.339400
3505.894817	14.691100
3495.537667	15.169300
3496.013117	15.120700
3505.614433	14.536200
3496.639300	15.054200
3503.430167	14.515900
3502.955500	14.503400
3508.805333	14.119200
3503.861783	14.419200
3499.201233	14.687400
3495.457933	14.877300
3494.106050	14.942000
3503.515067	14.377600
3497.882900	14.711600
3490.917267	15.121300
3502.668600	14.327000
3496.712600	14.606300
3487.648200	15.129800
3493.813067	14.755600
3490.308200	14.955500
3488.683367	15.036100
3497.014033	14.539500
3499.181233	14.409900
3493.472867	14.692900
3497.589800	14.295500
3492.784750	14.571200
3490.146117	14.689300
3492.300017	14.526100
3484.859033	14.770800
3486.333417	14.664700
3487.820500	14.552600
3476.908483	15.182100
3480.175883	14.852100
3479.443217	14.846500
3478.655067	14.883700
3483.019483	14.622000
3487.626367	14.320300
3485.642933	14.424000
3484.434550	14.443700
3479.617050	14.729300
3486.262833	14.306700
3478.848300	14.740700
3482.940300	14.323400
3491.780133	13.719300
3482.341183	14.225700
3483.677250	14.129600
3477.136183	14.520000
3479.210450	14.389700
3474.383117	14.635000
3477.326117	14.444800
3482.712867	13.945000
3477.303650	14.064800
3470.403100	14.430200
3465.099967	14.753200
3457.972950	15.091100
3464.710600	14.599700
3466.445100	14.475200
3462.612750	14.691200
3453.045933	15.244200
3457.797150	14.818400
3461.840617	14.572900
3466.927750	14.272400
3473.360900	13.866800
3459.180050	14.731100
3458.913600	14.752400
3455.944050	14.930900
3461.886183	14.564700
3462.613517	14.521900
3464.742700	14.394800
3457.113050	14.530100
3453.814650	14.618300
3455.573867	14.502700
3449.226917	14.865400
3456.178217	14.468200
3457.432817	14.371900
3464.309083	13.954200
3457.626283	14.348700
3456.710417	14.062600
3454.886950	14.141600
3462.345900	13.656200
3457.392733	13.928400
3455.688367	13.951600
3445.272200	14.464100
3442.902467	14.622700
3451.699567	14.092600
3467.660367	13.066900
3447.718033	14.155800
3441.644833	14.511900
3448.619883	14.086500
3454.250917	13.737100
3448.688783	14.064000
3444.131567	14.329900
3445.920550	14.222900
3451.451650	13.910300
3447.497667	14.123800
3449.589917	13.989400
3442.234967	14.397700
3447.707767	14.067400
3444.105717	14.261200
3437.907267	14.621200
3450.872650	13.875200
3446.815917	14.115400
3441.774667	14.393500
3441.504033	14.398800
3443.429900	13.816400
3449.120967	13.434700
3437.672450	14.103500
3435.965300	14.185400
3435.311467	14.011000
3436.357300	13.959200
3433.227150	14.133500
3434.248133	14.084400
3433.332500	14.080400
3436.613600	13.775900
3431.679117	14.059600
3437.651017	13.682500
3431.577933	14.032200
3423.071233	14.547900
3428.193750	14.243000
3426.920567	14.329900
3432.337000	13.981100
3430.032100	13.966400
3433.655200	13.711400
3428.128350	13.998200
3428.354767	13.982200
3431.331367	13.777000
3424.936550	14.141000
3423.865150	14.190200
3428.683317	13.897600
3422.070750	13.926200
3416.519600	14.252300
3421.298650	13.907300
3420.091467	13.936300
3418.625100	13.978700
3414.801750	14.176700
3407.697983	14.622000
3419.786333	13.862400
3422.075950	13.712000
3420.833200	13.765400
3407.781800	14.474300
3411.809300	14.108000
3413.589200	13.987400
3410.096600	14.193200
3415.264583	13.880100
3410.417300	14.151500
3409.773650	14.209400
3400.538683	14.782500
3403.144833	14.617500
3404.060883	14.372100
3409.342133	14.036100
3411.238433	13.905600
3399.050833	14.644500
3397.434017	14.721700
3409.913967	13.969600
3407.743717	14.094100
3411.874650	13.836800
3403.325900	14.105300
3403.619183	13.995900
3396.955133	14.344800
3396.959217	14.331400
3405.931317	13.792600
3405.491633	13.797900
3408.412667	13.583500
3406.176267	13.722700
3405.687283	13.742400
3402.020267	13.929700
3397.604067	14.114500
3404.233483	13.645200
3401.300617	13.794100
3399.490717	13.889500
3398.211817	13.961200
3404.783600	13.559900
3404.264900	13.549400
3403.878800	13.544900
3401.524150	13.641200
3399.309917	13.474300
3385.909417	14.244400
3403.395650	13.206800
3390.454617	13.959400
3392.841717	13.666300
3394.259767	13.534600
3386.744317	13.910200
3393.832850	13.489100
3390.783650	13.652600
3391.174117	13.643200
3383.079150	13.955900
3384.838350	13.832000
3382.471450	13.959200
3385.604450	13.776800
3381.118500	13.907900
3387.253883	13.508100
3372.331617	14.386000
3375.189183	14.217900
3379.792100	13.946300
3382.678800	13.762400
3388.159317	13.344700
3379.017567	13.738300
3379.580633	13.684200
3379.809133	13.679400
3378.108500	13.787300
3378.829767	13.729900
3376.901950	13.783700
3368.253817	14.131600
3375.212100	13.726700
3379.472633	13.458300
3374.868417	13.698100
3374.912683	13.547700
3363.453667	14.206900
3362.018917	14.294200
3371.273217	13.756600
3378.998333	13.302600
3376.212267	13.429900
3362.554400	14.082200
3359.601300	14.210000
3361.102450	14.121200
3365.701433	13.851000
3364.859050	13.877300
3371.211767	13.492300
3367.220683	13.732500
3365.261750	13.847000
3362.114050	13.796300
3359.057450	13.925900
3361.479133	13.782000
3366.492100	13.470500
3356.123133	14.088600
3355.939317	14.101000
3364.430633	13.613100
3358.449883	13.947000
3360.854933	13.749600
3355.168083	13.953300
3353.271667	14.064100
3354.377650	13.991300
3358.769733	13.718400
3352.502067	13.842100
3350.546633	13.920600
3349.303250	14.008400
3356.356383	13.584300
3349.646783	13.979400
3353.699633	13.730400
3362.435917	12.997600
3353.903867	13.496800
3349.082917	13.756000
3352.396617	13.549600
3342.604933	14.048400
3343.887800	13.921100
3355.208550	13.245200
3344.817167	13.862800
3343.065317	13.987000
3345.893250	13.820600
3346.791300	13.541600
3339.664650	13.955600
3344.581567	13.644100
3344.624567	13.615000
3345.687417	13.533700
3343.282883	13.694700
3336.808633	14.045100
3342.362200	13.582100
3340.558850	13.694600
3342.685033	13.557000
3341.616817	13.629700
3341.873583	13.393500
3336.179683	13.688400
3330.687900	14.016800
3344.139200	13.216400
3337.454750	13.590800
3341.251433	13.345500
3328.976467	13.912900
3332.293100	13.659800
3333.490850	13.588100
3330.377883	13.766100
3331.878000	13.651700
3333.739533	13.545900
3329.841233	13.779600
3333.330567	13.563700
3323.015417	13.950700
3328.221083	13.521600
3328.273083	13.505700
3328.077367	13.513600
3328.466567	13.464700
3327.481017	13.534000
3325.647633	13.650000
3329.236733	13.433400
3325.938350	13.589300
3330.488400	13.214900
3328.728033	13.304100
3324.011333	13.547100
3328.953933	13.209600
3333.175500	12.912800
3326.040383	13.308600
3327.449650	13.216400
3327.957217	13.180300
3322.627383	13.476900
3317.815567	13.726000
3323.121050	13.319300
3324.082783	13.244400
3321.056917	13.418200
3315.601450	13.713200
3325.454850	13.094000
3325.488050	13.078700
3323.451050	13.177700
3322.492167	13.197700
3322.435450	12.962000
3308.327650	13.669100
3308.740533	13.622700
3312.058750	13.421900
3315.971767	13.185700
3312.125250	13.389500
3310.445617	13.492600
3307.378533	13.666200
3306.599933	13.568700
3297.034250	13.936700
3298.369850	13.859300
3301.778100	13.623500
3294.204100	14.006600
3303.226850	13.374500
3310.965750	12.907700
3301.014433	13.479300
3300.565950	13.481300
3294.348117	13.735600
3292.455600	13.840100
3295.779167	13.604500
3298.293050	13.463300
3295.481517	13.642300
3291.200650	13.912400
3291.565567	13.735600
3289.843283	13.827300
3302.166733	13.090500
3292.088250	13.676600
3290.531417	13.633000
3292.361467	13.472800
3298.319833	13.130700
3304.351383	12.753600
3291.321417	13.545100
3296.372717	13.218400
3293.100233	13.407300
3289.171600	13.638500
3294.321967	13.038100
3294.346967	12.977200
3287.951650	13.323500
3284.102850	13.568900
3287.839767	13.332700
3280.033017	13.635100
3281.119583	13.578300
3274.042783	14.001300
3284.439617	13.366000
3284.508733	13.228200
3280.936000	13.408400
3285.229117	13.123000
3276.196150	13.662200
3283.422733	13.221600
3280.242633	13.405200
3291.432700	12.636200
3282.422933	13.122000
3277.341767	13.420300
3280.209217	13.234900
3279.716750	13.237400
3276.904767	13.393600
3272.705300	13.638800
3266.477450	13.998200
3276.938033	13.158300
3277.422667	12.996700
3273.930117	13.192600
3278.519967	12.876100
3277.588100	12.907700
3273.200050	13.117700
3278.767433	12.687000
3270.322500	13.070300
3276.173367	12.707200
3267.359433	13.209600
3265.822433	13.283700
3274.503317	12.649900
3271.913567	12.781900
3263.914267	13.179100
3264.530550	13.117400
3256.204067	13.616800
3264.439183	13.132500
3259.856317	13.334800
3266.037350	12.908900
3258.191067	13.370200
3260.961833	13.218900
3253.718917	13.511500
3255.096217	13.353400
3257.152967	13.198000
3252.050767	13.497700
3255.461200	13.337000
3261.536617	12.921400
3255.093400	13.256300
3253.638783	13.222800
3247.605267	13.524100
3250.932750	13.288400
3249.111033	13.396800
3254.432550	13.083800
3255.691550	12.982100
3249.961833	13.200000
3244.676717	13.493500
3248.482683	13.214100
3251.703383	13.013100
3239.983183	13.720500
3241.514917	13.629700
3234.325567	13.914700
3246.827283	13.175100
3241.843683	13.456200
3253.970583	12.716100
3245.855283	13.067100
3252.742983	12.590100
3238.926983	13.324800
3240.662050	13.216400
3247.325017	12.812500
3245.476783	12.904800
3248.554000	12.645200
3244.250250	12.803000
3248.940183	12.490800
3250.092883	12.372900
3239.607683	12.973200
3244.104483	12.712200
3240.420633	12.900300
3248.583367	12.282100
3238.585817	12.840400
3234.554417	13.087000
3236.151017	12.946300
3234.344833	12.927000
3229.726167	13.179700
3233.704017	12.883600
3230.456450	13.081400
3234.928983	12.797400
3236.877200	12.675800
3241.674567	12.231400
3234.408050	12.641900
3236.459433	12.513600
3230.074033	12.878700
3224.919733	13.080000
3228.034217	12.833500
3238.110983	12.167400
3225.364467	12.913300
3223.129750	13.022300
3230.137767	12.610300
3222.460233	12.988800
3219.516750	13.086800
3232.035500	12.293300
3223.296700	12.796100
3223.019933	12.813300
3225.393033	12.635700
3218.075050	13.049900
3221.512167	12.818500
3217.833850	13.046300
3221.997100	12.779000
3216.673133	13.074000
3222.975333	12.637500
3223.963817	12.529600
3216.867917	12.883300
3207.199333	13.465500
3213.571350	13.094600
3218.441833	12.791100
3213.096317	12.939700
3211.886050	12.983600
3215.544483	12.765300
3227.401400	12.035900
3213.493283	12.733800
3212.797500	12.729500
3208.342150	12.950600
3209.258833	12.879000
3207.204600	13.032800
3208.536250	12.918800
3208.404600	12.895700
3207.691617	12.910900
3210.295900	12.709100
3208.801900	12.770000
3208.483633	12.772800
3205.187750	12.956000
3205.264100	12.912200
3207.292767	12.730600
3204.835667	12.863200
3215.914817	12.178600
3213.216617	12.307600
3207.980267	12.518800
3198.881667	13.024600
3192.989967	13.312900
3196.374767	13.095100
3205.379967	12.533500
3201.122000	12.770600
3205.156817	12.359200
3204.175800	12.354200
3199.036700	12.599000
3191.754667	13.021600
3196.812433	12.705900
3188.904333	13.156500
3194.393050	12.741500
3194.183783	12.711600
3193.171050	12.707600
3186.178733	13.104000
3192.283150	12.747800
3191.303000	12.810200
3203.157933	11.997600
3196.917833	12.255300
3197.674500	12.171200
3195.883617	12.233200
3193.228167	12.355600
3185.782250	12.796100
3181.999800	12.994100
3183.354317	12.846400
3187.815433	12.580200
3184.478700	12.773600
3175.449217	13.290700
3178.437050	12.945500
3182.230167	12.703900
3185.218583	12.456300
3188.534567	12.257800
3179.562900	12.793700
3181.064200	12.678200
3178.903283	12.602700
3182.115083	12.414300
3165.060333	13.426200
3178.971150	12.588500
3173.314750	12.801200
3183.115200	12.176600
3173.890733	12.663000
3183.644883	12.077100
3168.231217	13.017100
3167.496317	13.061800
3175.019283	12.515100
3178.229800	12.269000
3173.833933	12.419100
3170.506000	12.631400
3170.912700	12.576500
3173.819683	12.395700
3168.016350	12.680600
3169.471150	12.496100
3161.256083	12.986400
3161.725083	12.936000
3170.427933	12.379800
3177.021650	11.861900
3167.490217	12.398200
3165.955650	12.434000
3163.585650	12.571700
3162.112450	12.656900
3161.136483	12.684600
3158.042017	12.736300
3161.409117	12.501700
3147.879400	13.253900
3153.936383	12.906300
3159.699017	12.560800
3150.366483	13.111500
3163.314450	12.284900
3162.120333	12.329700
3164.496967	12.100300
3160.857017	12.314200
3157.796883	12.480600
3155.749033	12.585600
3152.247350	12.618500
3153.825750	12.480800
3166.190183	11.728200
3155.965117	12.324700
3151.858517	12.548200
3154.348550	12.251300
3149.416833	12.526800
3151.423450	12.354500
3150.173667	12.410200
3157.890917	11.948800
3149.372867	12.468100
3150.565183	12.316500
3144.106733	12.673800
3148.192883	12.361500
3145.328000	12.536600
3139.609317	12.892900
3144.738483	12.599400
3139.699183	12.735600
3140.327600	12.673700
3152.770600	11.912600
3147.875300	12.217400
3145.427467	12.211300
3149.074683	11.945100
3127.409483	13.171800
3132.841983	12.852300
3132.793250	12.851900
3144.979133	12.114300
3138.928717	12.394000
3128.844383	12.889500
3129.139250	12.840500
3131.036533	12.711000
3139.800017	12.175900
3135.236483	12.432900
3140.649550	12.070400
3136.662367	12.192100
3130.778250	12.512900
3125.789950	12.799400
3128.978050	12.602000
3128.710017	12.550600
3132.095000	12.323300
3126.211017	12.645700
3130.818400	12.365900
3135.073950	12.090800
3140.607983	11.751300
3128.230433	12.291300
3116.714600	12.939200
3127.572817	12.235600
3129.358133	12.123000
3118.800317	12.729700
3126.175117	12.288400
3134.198800	11.674400
3127.043383	12.057600
3122.685733	12.277500
3128.624867	11.890600
3120.091350	12.385400
3123.235417	12.184000
3121.533617	12.184600
3119.225667	12.239500
3111.642950	12.678200
3116.372650	12.385400
3114.860300	12.439400
3112.875817	12.504400
3114.592483	12.393300
3122.224000	11.918300
3118.107517	12.142900
3114.654233	12.330000
3105.567117	12.838000
3107.907967	12.551200
3110.194650	12.379400
3107.369883	12.482100
3106.738633	12.484500
3101.080750	12.835700
3108.597700	12.377900
3107.154633	12.390300
3112.179083	12.056100
3096.403900	12.962900
3103.157100	12.536600
3095.834550	12.859700
3098.027967	12.680800
3093.919267	12.904600
3099.337950	12.537500
3103.647950	12.261800
3098.655350	12.557600
3099.188550	12.503900
3105.908817	12.103300
3095.364467	12.670000
3098.511983	12.298200
3101.319400	12.095900
3098.620117	12.225700
3092.552433	12.602700
3096.819833	12.275100
3105.714567	11.707900
3096.694483	12.237300
3096.595567	12.205000
3092.926917	12.279700
3094.147833	12.140100
3098.212850	11.803700
3088.792200	12.360200
3092.437133	12.135900
3094.074650	12.056900
3087.862650	12.241400
3084.526483	12.429600
3089.490950	12.099200
3089.611033	12.063900
3093.691133	11.824500
3087.162350	12.189800
3080.981483	12.391200
3089.225300	11.855000
3087.487817	11.940100
3091.269150	11.681600
3078.263900	12.400400
3080.362017	12.263800
3079.034133	12.327600
3084.673717	11.977900
3085.811283	11.884200
3078.082717	12.318400
3083.412200	11.929100
3085.385200	11.702600
3084.533350	11.717900
3073.652900	12.281900
3069.328850	12.541100
3077.681917	12.045700
3087.214717	11.471800
3074.490300	12.049700
3075.515233	11.983800
3078.539900	11.799200
3073.848900	12.056000
3070.797867	12.113200
3070.250033	12.113100
3069.521033	12.075600
3072.248517	11.930200
3067.369950	12.240800
3070.853617	12.020500
3075.161700	11.630900
3065.721950	12.132800
3082.187117	11.065900
3066.866117	11.961100
3068.039383	11.892000
3071.413850	11.698400
3060.997517	12.238600
3064.865933	11.930100
3064.190367	11.938900
3064.494200	11.915600
3060.710583	12.072300
3057.522717	12.137200
3060.631667	11.928400
3058.126500	12.029300
3060.111550	11.908100
3051.578000	12.425300
3057.548350	12.053000
3055.619867	12.017200
3054.644000	12.049400
3057.712517	11.785600
3063.208317	11.461900
3060.525883	11.606700
3060.417517	11.604700
3053.634550	11.916800
3053.112717	11.935000
3039.572033	12.733800
3052.819450	11.928200
3050.034550	11.968100
3055.751733	11.573400
3047.592750	11.968100
3048.979767	11.888200
3046.705317	11.999500
3057.505283	11.350500
3043.887667	12.090700
3051.259683	11.550900
3051.967850	11.478200
3050.180900	11.500100
3039.837967	12.126100
3044.294017	11.867500
3038.984950	12.139400
3034.836933	12.279300
3041.453250	11.885000
3050.689650	11.296700
3042.936467	11.762500
3032.316550	12.330500
3041.344217	11.758300
3042.390850	11.609900
3041.890100	11.621900
3035.810500	11.966300
3034.893300	12.007400
3024.650217	12.468100
3023.793400	12.516200
3029.887767	12.163900
3036.724917	11.739400
3036.148100	11.642900
3033.032117	11.762200
3045.609100	10.942700
3039.103767	11.321200
3033.158700	11.632400
3032.283067	11.706400
3022.107017	12.244600
3026.150067	11.919700
3020.541150	12.229400
3024.044600	11.981600
3025.122750	11.897900
3023.896300	11.965700
3023.663400	11.968100
3026.187567	11.758300
3030.545067	11.492500
3021.510017	11.969200
3014.355583	12.372600
3011.662467	12.529300
3013.247000	12.428000
3020.208900	11.855300
3023.069167	11.635900
3014.847717	12.049900
3019.060850	11.802200
3021.112200	11.654900
3015.769067	11.963200
3018.689150	11.632400
3012.284800	12.010700
3026.885867	11.097400
3017.999067	11.651500
3014.782367	11.747800
3017.632500	11.469800
3016.101983	11.556900
3011.900500	11.752100
3016.669367	11.454700
3008.334867	11.937400
3006.072400	12.059900
3007.263450	11.947100
3003.048417	12.174100
3013.321300	11.503400
3009.756933	11.715000
3007.100267	11.835400
3011.871283	11.551500
3006.245017	11.687800
2997.840833	12.152700
3002.250350	11.886500
3004.086150	11.764400
3007.159517	11.425900
3003.180717	11.619400
3001.803433	11.637600
3005.538700	11.409800
2998.092017	11.840200
2997.087183	11.886000
3008.007083	11.090400
2997.890467	11.656000
2992.270500	11.968100
2992.145833	11.994600
3005.519550	11.125700
3000.243000	11.316500
2998.208333	11.418600
2993.084983	11.690100
2995.000450	11.572100
2995.655633	11.512500
2998.884500	11.306300
2988.984350	11.772500
3005.698417	10.735000
2989.569033	11.650200
2989.021817	11.680300
2995.075767	11.284300
2993.320800	11.366900
2992.932667	11.231800
2990.424483	11.368800
2999.460550	10.719800
2995.641367	10.943800
2986.346900	11.484200
2980.760417	11.812000
2978.055200	11.803700
2976.277283	11.897400
2987.484417	11.199700
2975.816833	11.909100
2978.310117	11.646400
2967.246767	12.247600
2968.877017	12.111400
2976.245517	11.677000
2988.653067	10.945300
2970.829667	12.006100
2979.071883	11.484600
2976.328850	11.591000
2977.073883	11.522700
2974.990150	11.609300
2978.845083	11.352000
2981.695083	11.169600
2977.301117	11.423500
2976.699117	11.290900
2977.620817	11.218000
2976.087483	11.264100
2975.939600	11.271200
2974.456350	11.194700
2970.295450	11.395100
2976.781033	10.927800
2966.695833	11.520900
2960.060850	11.906900
2966.356000	11.533100
2972.795833	11.090400
2965.557767	11.494300
2960.900333	11.739900
2961.575867	11.693200
2960.842667	11.710300
2955.884617	12.006100
2962.329467	11.554600
2967.108867	11.150500
2959.963117	11.563600
2964.442067	11.293900
2965.177417	11.218900
2964.783200	11.162300
2958.792833	11.502300
2961.187783	11.276700
2952.658767	11.771800
2962.554600	11.141300
2958.871167	11.375800
2960.589883	11.111700
2964.125700	10.864700
2955.007633	11.373300
2956.189600	11.286200
2957.368067	11.075800
2941.858950	11.972300
2943.190533	11.840100
2947.543817	11.573500
2951.014900	11.345000
2949.625550	11.417000
2947.178683	11.487600
2950.159000	11.193500
2943.330800	11.579900
2941.044067	11.670700
2945.399900	11.419100
2942.025233	11.612100
2952.748933	10.962000
2947.238267	11.240200
2941.371917	11.563900
2946.528550	11.229800
2940.956800	11.544500
2945.927833	11.220000
2944.415750	11.258300
2936.938150	11.534000
2938.649017	11.429800
2945.365883	11.003700
2944.180767	11.057500
2939.803367	11.151700
2937.215733	11.278200
2947.940333	10.562400
2936.905450	11.195300
2932.732183	11.456400
2939.307967	11.063500
2932.900383	11.375400
2932.153633	11.379000
2930.774867	11.415100
2932.197367	11.341900
2932.629933	11.309700
2928.667333	11.520300
2931.318633	11.196000
2933.236850	11.063300
2934.194967	10.966300
2922.781283	11.640300
2924.120750	11.436800
2920.153083	11.658000
2917.573867	11.705800
2929.968133	10.958400
2924.584467	11.250100
2932.190833	10.773000
2925.585667	11.110900
2928.070483	10.831200
2925.784500	10.958000
2918.848000	11.302700
2915.878367	11.502100
2920.706800	11.189600
2923.984600	10.997300
2915.672833	11.333400
2926.788767	10.668100
2912.110783	11.517000
2922.095433	10.921500
2910.931117	11.528800
2916.893783	11.162400
2917.465983	11.079900
2917.601200	11.080700
2931.453700	10.221500
2920.934200	10.833800
2923.988617	10.525300
2914.623133	11.022000
2911.766150	11.134100
2910.796283	11.174100
2905.746717	11.468800
2914.396917	10.962400
2917.857383	10.721700
2912.960633	10.856100
2902.132200	11.501300
2899.231800	11.708300
2899.413067	11.686300
2903.012983	11.405100
2902.239217	11.433100
2893.423483	11.931900
2903.905967	11.293000
2901.519283	11.403900
2902.098567	11.376400
2910.759533	10.715400
2915.578783	10.364700
2902.311267	11.074900
2903.345133	10.996500
2900.395150	11.175200
2896.652883	11.389800
2891.115783	11.577300
2897.718433	11.162700
2894.785433	11.324700
2892.285317	11.452900
2885.275767	11.758300
2885.112967	11.696500
2890.846900	11.315900
2896.491533	10.947600
2896.448100	10.943600
2891.260383	11.248200
2895.165350	10.969100
2891.871750	11.049500
2899.871567	10.543900
2889.150583	11.145000
2885.580400	11.359700
2891.551450	10.846700
2884.484150	11.264600
2893.151567	10.725700
2889.440117	10.936000
2889.024067	10.885300
2886.415183	11.007900
2893.254250	10.574600
2890.757700	10.695800
2873.361333	11.571000
2880.849517	11.086900
2881.849483	11.008200
2880.699650	11.098100
2875.865483	11.241300
2881.804400	10.826600
2884.592483	10.604400
2880.853817	10.813000
2871.137283	11.375400
2873.360033	11.230500
2876.956233	10.908600
2880.012233	10.669200
2876.814167	10.844800
2879.665633	10.665900
2865.318450	11.513300
2872.626033	11.070300
2866.568933	11.403900
2864.317500	11.502500
2869.886667	11.158900
2876.973050	10.727000
2870.625367	11.078200
2865.902550	11.204300
2870.743100	10.862600
2869.081617	10.916500
2868.481333	10.940700
2870.108217	10.823200
2860.892883	11.373600
2865.062900	10.990400
2866.134567	10.890400
2863.953783	10.921200
2862.321917	11.011000
2871.575533	10.449300
2861.859417	11.011900
2862.026383	10.828200
2859.380400	10.978700
2863.201867	10.754500
2861.799550	10.827800
2867.138000	10.453100
2864.889567	10.457500
2857.876483	10.853700
2845.562817	11.571100
2854.177917	11.073400
2860.952067	10.684300
2851.366567	11.251900
2856.771283	10.777800
2851.817633	11.023200
2844.986400	11.332400
2850.785967	10.969900
2852.826417	10.842700
2846.581983	11.212800
2845.049033	11.142000
2843.860417	11.209300
2843.664000	11.204900
2842.997867	11.246200
2846.671333	10.955400
2849.063617	10.780900
2852.472433	10.541400
2851.405133	10.603800
2849.261450	10.709300
2852.903950	10.479200
2847.390850	10.725800
2843.565167	10.846300
2843.951500	10.784600
2842.304867	10.844800
2842.040133	10.831200
2836.669583	11.146200
2842.709233	10.783800
2841.395333	10.706100
2835.898900	11.028800
2837.487050	10.892300
2835.828350	11.003000
2841.207467	10.489000
2840.567100	10.529000
2829.600933	11.127000
2836.658633	10.679700
2845.475450	10.118300
2844.213717	10.196800
2831.638083	10.897500
2834.205933	10.733100
2831.186933	10.866600
2845.116700	10.003400
2841.558433	10.183500
2829.996483	10.822200
2826.316000	11.028200
2826.648600	10.937000
2828.860300	10.793900
2831.452867	10.626700
2832.615100	10.496000
2824.172700	10.863500
2821.834167	10.960300
2823.298967	10.806100
2820.982233	10.953000
2830.423100	10.397000
2833.568367	10.193200
2827.790567	10.325200
2824.135300	10.502300
2819.897233	10.704000
2823.070917	10.498000
2819.052517	10.738000
2820.460800	10.631000
2817.152333	10.698000
2816.725417	10.660900
2819.824867	10.478500
2813.739733	10.845600
2813.895800	10.800800
2816.849650	10.602200
2809.375600	11.024000
2816.190667	10.590400
2814.496600	10.674800
2809.565383	10.953000
2808.991683	10.856100
2809.277033	10.837800
2816.013800	10.426700
2808.145533	10.877700
2816.634200	10.350500
2813.728533	10.359600
2805.926817	10.804600
2811.957117	10.367500
2801.930783	10.940700
2807.215517	10.636600
2802.980817	10.879000
2798.233700	11.066600
2797.818833	11.081700
2796.111450	11.083400
2798.168617	10.972300
2785.599717	11.695300
2798.348267	10.936300
2803.342167	10.501900
2799.533400	10.680800
2803.033183	10.371900
2799.258450	10.557800
2795.422500	10.766600
2793.287783	10.887000
2798.492583	10.420800
2794.478500	10.657400
2783.675250	11.288900
2795.372883	10.608300
2781.675583	11.348400
2783.704233	11.145300
2784.739133	11.050200
2794.322250	10.451300
2792.563550	10.557200
2794.086517	10.461700
2784.464350	10.992500
2786.134983	10.791300
2790.735417	10.490500
2783.936133	10.822200
2778.938867	11.116300
2784.202283	10.809900
2788.960650	10.517000
2792.338833	10.241400
2788.487550	10.451000
2788.295033	10.449900
2785.557917	10.587400
2775.774033	11.018100
2776.362917	10.942900
2785.588017	10.317700
2780.156733	10.648800
2779.221300	10.697300
2777.059917	10.817200
2768.389183	11.210700
2775.316817	10.765000
2786.953433	9.996000
2791.144717	9.728500
2783.951067	10.108900
2775.787750	10.586900
2770.778717	10.789300
2773.919383	10.507800
2782.426000	9.994100
2773.737733	10.494900
2768.769700	10.760900
2764.737100	10.977800
2769.565800	10.668800
2774.100067	10.332400
2776.054017	10.175200
2768.527967	10.620100
2767.002100	10.677800
2761.789883	10.845600
2765.641300	10.584200
2763.556567	10.655800
2772.735667	10.087900
2760.216067	10.839700
2760.602233	10.792500
2771.509133	9.999900
2763.362617	10.478500
2757.439133	10.815900
2764.889550	10.339700
2754.593367	10.928200
2758.922950	10.626800
2760.341033	10.462800
2763.370233	10.256100
2751.039567	10.966000
2760.799783	10.359600
2745.448983	11.170800
2754.959167	10.534300
2758.605933	10.297500
2755.810933	10.469400
2751.325950	10.652000
2747.283450	10.773500
2744.066467	10.939300
2741.376350	11.062400
2748.844567	10.616800
2752.872100	10.367300
2753.437733	10.329000
2751.190200	10.384700
2743.533000	10.819400
2743.325183	10.818000
2751.889933	10.268700
2751.084600	10.298900
2754.012250	10.091900
2746.322533	10.388400
2748.761017	10.186900
2748.236133	10.131000
2743.351617	10.411000
2742.575883	10.473300
2741.515600	10.521800
2748.016050	10.001900
2743.266617	10.215100
2744.232167	10.083400
2743.612250	10.109000
2732.046900	10.790600
2729.583800	10.961000
2735.920100	10.426100
2732.420100	10.620800
2732.331933	10.572900
2743.126017	9.959200
2734.238233	10.391400
2728.437467	10.641700
2730.672283	10.476900
2735.426100	10.133000
2715.194083	11.305500
2729.765283	10.440900
2727.818983	10.529400
2743.153000	9.482600
2730.778083	10.177800
2721.932900	10.636700
2727.856683	10.273500
2732.037100	9.996500
2721.645833	10.614000
2727.784550	10.169000
2732.472467	9.862000
2721.097733	10.539900
2717.906300	10.719800
2721.733117	10.360900
2723.097400	10.246100
2727.930250	9.917300
2729.666850	9.788600
2723.479267	10.132300
2723.951633	10.094100
2723.899550	10.009700
2721.323467	10.068100
2724.691667	9.789400
2720.769433	9.993300
2726.743800	9.622100
2721.275967	9.941500
2720.301183	9.949200
2715.386800	10.086200
2713.154717	10.173400
2707.161667	10.534000
2715.372933	10.020900
2707.646400	10.378400
2712.811183	10.054500
2705.184783	10.522200
2704.759133	10.534800
2710.492550	10.035500
2706.414667	10.245100
2714.483617	9.711700
2713.327700	9.777200
2705.210883	10.247700
2703.383150	10.327400
2705.486500	10.061300
2707.583683	9.914700
2699.453200	10.354700
2701.478500	10.218200
2700.789650	10.253000
2701.933233	10.191300
2699.838550	10.245800
2708.926567	9.599500
2698.064850	10.212800
2694.243150	10.394600
2693.615400	10.437200
2690.667567	10.612900
2700.735350	9.968300
2700.299317	9.860200
2693.355083	10.255800
2690.594400	10.352000
2699.266717	9.817600
2694.689767	10.084300
2700.515567	9.716800
2704.931167	9.422800
2698.959700	9.772700
2692.918967	10.030600
2687.914600	10.316300
2692.752017	9.960700
2681.961150	10.575500
2692.006633	9.985500
2687.109383	10.279200
2690.677667	9.933700
2681.327750	10.430600
2688.036383	9.985500
2684.210233	10.198800
2688.806083	9.918300
2688.207017	9.933700
2684.172450	10.047500
2688.962167	9.693400
2684.458717	9.869200
2688.918133	9.583200
2680.730867	10.032700
2681.075783	10.003800
2674.938400	10.254500
2681.083800	9.818300
2688.206267	9.355300
2685.291950	9.489800
2678.617867	9.872200
2672.432800	10.240700
2672.899600	10.214300
2664.042067	10.751200
2671.544383	10.296900
2676.480883	9.920400
2672.657317	10.144300
2675.102283	9.964500
2673.111567	10.038700
2675.093317	9.849100
2680.598733	9.491700
2674.172267	9.849100
2676.959883	9.672600
2668.208083	10.042800
2670.983633	9.812400
2672.996850	9.641900
2667.645183	9.943500
2667.863000	9.897800
2669.601900	9.787400
2666.583800	9.786200
2665.595433	9.843300
2660.539850	10.170800
2669.884733	9.584700
2664.996650	9.802400
2655.631467	10.245400
2661.608917	9.868600
2664.368767	9.673600
2655.670650	10.177100
2662.579617	9.766000
2660.439900	9.872300
2658.028517	9.872200
2657.128733	9.928200
2646.512417	10.499500
2655.777100	9.946100
2653.046617	10.099900
2649.359883	10.310700
2655.359133	9.837300
2651.469633	10.040700
2644.777700	10.322600
2643.012433	10.449000
2655.952900	9.652400
2656.957667	9.576400
2650.432733	9.791400
2640.489367	10.359400
2643.441367	10.161700
2639.922317	10.380400
2646.730733	9.920100
2647.743417	9.828100
2641.248033	10.148100
2649.147933	9.659700
2646.218467	9.807100
2644.348000	9.920600
2647.926583	9.617400
2652.192233	9.212700
2644.231483	9.645600
2648.936467	9.314800
2646.533250	9.423500
2641.612683	9.693000
2647.356983	9.303600
2643.795417	9.373300
2642.059600	9.452900
2639.729717	9.550600
2644.391183	9.267300
2635.431833	9.651000
2639.311750	9.380300
2630.483083	9.840900
2628.399283	9.982800
2626.900533	10.066800
2626.525933	10.098900
2626.690000	9.980600
2630.380650	9.704600
2625.307583	9.925200
2625.496683	9.923700
2627.928550	9.754700
2625.287967	9.913300
2621.042150	10.128800
2614.452817	10.469200
2630.671267	9.502900
2637.062150	9.108200
2625.211117	9.724000
2620.847033	9.872700
2628.415500	9.387500
2617.345167	10.008400
2623.051133	9.663300
2629.997067	9.232000
2619.010617	9.855100
2613.515700	10.033400
2612.631233	10.073400
2611.404267	10.132300
2609.762183	10.217100
2610.745783	9.992700
2620.396583	9.405900
2617.098350	9.511100
2615.253217	9.619000
2615.538350	9.573200
2609.288783	9.957000
2609.110200	9.823700
2606.001383	9.983700
2609.246700	9.786200
2607.930050	9.843500
2610.210767	9.714700
2611.672183	9.639900
2613.146350	9.419000
2607.712783	9.699600
2602.536283	9.964500
2610.810433	9.485700
2608.019333	9.508200
2602.712450	9.779900
2595.978283	10.127100
2591.319350	10.415600
2607.063467	9.481900
2601.871017	9.767800
2602.399133	9.687000
2605.766183	9.356700
2595.381717	9.947500
2599.886983	9.618300
2601.425100	9.493700
2599.395117	9.609400
2594.928867	9.849100
2589.593533	10.041600
2594.731583	9.713400
2593.501400	9.716900
2593.723000	9.704000
2593.159467	9.719500
2592.315683	9.758400
2581.102483	10.256100
2595.229533	9.394500
2595.168983	9.341400
2595.324833	9.345000
2592.769967	9.367300
2586.862100	9.679400
2584.881783	9.751200
2583.234850	9.828800
2584.566850	9.733700
2577.591750	10.140200
2578.909700	10.009700
2585.470317	9.511000
2587.275433	9.373800
2579.490733	9.779700
2578.147150	9.862400
2578.921350	9.786800
2576.646167	9.924100
2570.665550	10.123700
2572.989750	9.986300
2579.947950	9.573500
2576.963650	9.743300
2577.984283	9.610500
2580.487750	9.442100
2574.753000	9.714200
2575.644683	9.651300
2573.079633	9.780900
2581.548733	9.282600
2575.186333	9.529500
2577.622367	9.342100
2567.637217	9.882700
2573.267517	9.523900
2571.438983	9.616800
2578.244783	9.204000
2562.510650	9.948800
2570.680233	9.465000
2561.061667	10.041400
2564.242800	9.821600
2570.140917	9.410800
2574.657650	9.061700
2578.685183	8.705700
2567.320900	9.390800
2561.341600	9.733700
2562.710800	9.637400
2565.209633	9.443700
2559.198900	9.684500
2548.681617	10.317700
2551.262400	10.096100
2562.343150	9.446300
2556.569950	9.782000
2558.497283	9.663300
2561.209600	9.337400
2554.546017	9.706000
2553.149233	9.790800
2557.447167	9.529900
2559.683917	9.232300
2556.617650	9.380300
2554.123533	9.436500
2547.918933	9.824400
2543.172983	10.064100
2543.777383	10.019400
2548.494083	9.619200
2549.513283	9.498000
2543.282800	9.786200
2548.527483	9.467100
2538.693833	10.045800
2541.543133	9.872700
2545.413333	9.615900
2544.860467	9.595900
2544.019983	9.622800
2562.730600	8.501900
2547.057233	9.384000
2535.833083	9.901500
2538.949650	9.702200
2539.325317	9.605200
2538.774567	9.612700
2545.279350	9.231200
2538.125517	9.638500
2546.570817	8.989600
2544.017000	9.095300
2551.533617	8.530900
2545.495267	8.889700
2544.398850	8.931500
2539.317117	9.200800
2547.280817	8.560300
2534.904417	9.279100
2526.318917	9.799600
2534.412783	9.345600
2529.696033	9.514200
2534.831300	9.150200
2531.014533	9.335100
2527.308567	9.565900
2529.620867	9.430300
2528.752900	9.478700
2524.444433	9.661800
2522.735933	9.658200
2524.977600	9.473900
2523.427167	9.510400
2527.934933	9.225300
2523.813500	9.479600
2518.764667	9.747700
2517.330050	9.701300
2521.648983	9.451200
2519.278500	9.596300
2517.156700	9.710300
2529.322633	8.867100
2514.808100	9.702200
2514.251900	9.687800
2524.850233	9.063000
2524.734750	9.075500
2517.446733	9.468000
2520.147867	9.181000
2519.335933	9.165000
2513.223150	9.463100
2508.535800	9.733700
2513.225233	9.437400
2506.242883	9.868800
2506.949017	9.782200
2507.399067	9.739000
2519.431517	8.926000
2516.072883	9.129900
2511.815567	9.364300
2510.908133	9.422700
2511.647000	9.283400
2517.768067	8.767900
2518.032500	8.702900
2511.170317	9.093100
2503.434267	9.496900
2505.658783	9.258600
2510.460333	8.940000
2516.393500	8.514500
2508.227017	8.975200
2504.290417	9.188200
2498.414617	9.549400
2500.345033	9.377700
2502.288883	9.231000
2496.261150	9.510800
2510.727467	8.650300
2500.595983	9.216600
2507.481783	8.800800
2496.888517	9.270100
2497.878250	9.181700
2499.653733	9.090300
2494.215017	9.372100
2493.256083	9.356100
2495.424600	9.146300
2487.686367	9.534400
2483.181900	9.801500
2490.390100	9.380000
2497.295417	8.966500
2494.452417	9.084700
2497.061300	8.770400
2482.970933	9.566700
2487.176400	9.297500
2491.179383	9.027900
2494.926767	8.805700
2493.507283	8.851800
2486.258000	9.104300
2489.590567	8.880100
2481.079617	9.373600
2489.883100	8.838800
2478.823417	9.428200
2470.998567	9.886600
2474.338783	9.649800
2475.429267	9.546100
2464.449367	10.176400
2476.522483	9.475800
2477.999383	9.258900
2479.113617	9.124000
2478.692300	9.106400
2475.036883	9.265200
2477.148417	9.114100
2479.764300	8.948900
2485.355000	8.555600
2475.957783	8.996400
2473.798650	9.083300
2478.317983	8.820300
2472.068950	9.131300
2470.067583	9.153300
2478.116633	8.643600
2474.846883	8.756700
2465.968167	9.259600
2473.659350	8.795900
2468.433333	9.103500
2458.207883	9.660900
2468.176433	9.060900
2464.686067	9.145000
2459.735367	9.448900
2465.396867	9.097900
2468.703450	8.891000
2467.450450	8.771300
2458.030600	9.307700
2460.833700	9.131600
2462.293850	9.047300
2460.477400	9.017600
2459.127700	9.062300
2447.302500	9.691700
2450.997233	9.477600
2478.385500	7.824500
2463.909600	8.676200
2460.581750	8.821100
2454.900117	9.035200
2454.782800	9.021200
2458.925117	8.718400
2452.349200	9.080300
2442.386833	9.659400
2452.790217	9.040600
2451.622717	9.037000
2453.923483	8.887800
2460.180100	8.459900
2451.334317	8.965300
2448.815950	9.082700
2444.579833	9.335100
2451.371700	8.777000
2458.089867	8.352700
2459.003583	8.249400
2448.781133	8.870700
2441.290900	9.187400
2448.341000	8.692100
2448.401267	8.586100
2452.769883	8.323500
2436.060133	9.295500
2438.041317	9.144400
2436.499100	9.114800
2433.272567	9.286600
2442.034633	8.716200
2442.311400	8.717600
2437.572383	8.927700
2431.820167	9.144400
2432.787483	9.064800
2432.936433	9.037200
2435.246067	8.894500
2446.439117	8.224000
2437.795317	8.725900
2442.702600	8.342900
2441.008533	8.413500
2437.661517	8.547400
2431.263383	8.903700
2441.438667	8.286100
2435.504133	8.635500
2425.886183	9.020400
2420.980033	9.305100
2421.561283	9.252300
2426.623867	8.938000
2433.461150	8.405000
2427.790933	8.677500
2427.823867	8.590300
2424.692500	8.768000
2429.894233	8.428800
2427.080583	8.595900
2427.880000	8.475800
2426.705367	8.519800
2422.032033	8.737200
2417.330400	9.014600
2418.996883	8.907600
2422.577100	8.669300
2427.833250	8.282300
2421.107833	8.592900
2412.301217	9.109600
2425.252667	8.315500
2419.687550	8.615600
2415.941117	8.764000
2417.630900	8.654600
2417.758983	8.586300
2408.486817	9.127000
2414.653450	8.756300
2418.507900	8.516900
2417.760983	8.339700
2413.790217	8.572300
2409.626600	8.780300
2406.250667	8.987200
2410.747500	8.601500
2410.841350	8.535500
2414.609450	8.273000
2406.053550	8.755100
2414.939300	8.181200
2414.268500	8.214200
2397.296233	9.095100
2403.127717	8.708200
2398.514617	8.947000
2400.693617	8.801200
2391.243700	9.389000
2399.732200	8.895200
2397.047183	8.999400
2403.749417	8.571400
2394.375417	9.099100
2400.710000	8.725400
2397.801783	8.799300
2395.296400	8.835500
2402.566367	8.382400
2399.568867	8.473300
2396.051850	8.672900
2390.311433	9.008400
2393.165367	8.822200
2400.224233	8.259600
2390.629233	8.796600
2386.134183	8.986800
2391.358483	8.650200
2394.896983	8.414100
2393.343800	8.486300
2388.576483	8.724000
2390.746267	8.565100
2396.940400	8.110400
2388.676000	8.607200
2385.796083	8.771700
2392.458183	8.370000
2385.026267	8.626000
2385.602283	8.564700
2384.546950	8.608700
2386.666033	8.469000
2386.478300	8.363600
2382.727450	8.513600
2369.541017	9.240700
2377.934150	8.690000
2370.099333	9.131100
2385.731150	8.187200
2384.772867	8.200300
2370.245183	8.935800
2372.819283	8.760600
2369.753150	8.891300
2364.905767	9.184000
2380.290150	8.276300
2371.732683	8.754900
2373.340700	8.487500
2374.695933	8.387700
2366.072967	8.866900
2366.267617	8.852500
2362.133483	9.031500
2367.872317	8.655100
2368.456733	8.612400
2367.867367	8.645200
2370.592817	8.480200
2374.559950	8.238500
2374.749017	8.066500
2370.073983	8.270400
2378.377467	7.688200
2368.627617	8.254000
2354.736033	9.069300
2374.845383	7.869600
2367.750550	8.211800
2365.774050	8.182400
2364.951217	8.221600
2365.076883	8.168700
2364.588967	8.174500
2369.143233	7.775400
2362.079983	8.142000
2361.574283	8.113800
2356.055850	8.450900
2349.391867	8.834800
2347.373833	8.952600
2352.276317	8.524300
2354.672300	8.351300
2350.921283	8.544000
2348.483083	8.682300
2354.757267	8.293300
2350.521467	8.530600
2348.844883	8.472300
2352.097233	8.265900
2346.565617	8.554600
2336.426183	9.172200
2340.899217	8.790400
2346.981300	8.350700
2335.847800	8.954000
2343.020683	8.522400
2339.525567	8.702200
2328.091150	9.397400
2335.690517	8.895400
2332.487983	8.988900
2333.954667	8.883100
2337.684417	8.636500
2339.408683	8.507700
2337.623283	8.588700
2335.890467	8.690800
2340.220617	8.297200
2340.281183	8.271900
2334.186617	8.573500
2331.260750	8.726000
2336.883417	8.396800
2337.959967	8.297500
2342.325550	7.858100
2335.606783	8.237700
2327.823083	8.699100
2336.295033	8.171400
2330.339500	8.405000
2334.046017	8.132200
2341.985450	7.611200
2329.436233	8.339100
2329.850933	8.278200
2324.407483	8.588400
2322.209000	8.604500
2315.461417	8.951500
2335.684800	7.682900
2329.644450	8.043500
2327.091333	8.178900
2317.376833	8.770500
2328.863450	8.073500
2327.647367	8.077000
2331.379683	7.856700
2315.735117	8.785900
2315.861333	8.774700
2326.474317	8.069500
2321.468150	8.352800
2320.757867	8.350000
2321.215267	8.289400
2313.640733	8.695200
2323.774483	8.079300
2319.911533	8.150400
2311.504067	8.607100
2321.728067	7.931500
2315.872700	8.274800
2321.524050	7.918400
2318.866250	8.071400
2322.651650	7.682900
2315.856417	8.061400
2314.892233	8.101800
2311.472233	8.303100
2307.223400	8.449400
2305.259467	8.484700
2306.862900	8.344700
2306.476750	8.302700
2307.814000	8.209400
2307.659283	8.217000
2302.894417	8.406700
2306.877767	8.068600
2303.429133	8.234400
2302.348233	8.283300
2301.155550	8.356700
2304.450950	8.065100
2305.381533	7.953900
2297.500667	8.350000
2301.465483	8.080800
2296.398300	8.369000
2301.776217	8.046400
2301.877400	7.868300
2292.166083	8.413500
2292.571117	8.322100
2293.336817	8.282200
2300.133267	7.869100
2285.109550	8.761400
2288.328000	8.442800
2300.293783	7.677000
2282.110483	8.674200
2289.146467	8.235400
2285.827167	8.438500
2287.557283	8.338500
2282.588750	8.495900
2289.565083	8.034300
2295.119867	7.656700
2288.117867	8.072800
2283.871083	8.301300
2281.329917	8.292400
2279.556567	8.397700
2284.794417	8.048800
2283.916483	8.089800
2280.741100	8.290100
2280.661917	8.267200
2281.120383	8.129400
2275.517117	8.432200
2274.447167	8.381800
2274.741200	8.356700
2274.890967	8.339200
2267.162900	8.785700
2280.764700	7.814000
2271.189950	8.364500
2270.845517	8.385700
2264.894200	8.744600
2275.493767	7.972900
2269.604050	8.287400
2266.434767	8.429500
2264.046517	8.542600
2265.194600	8.464400
2272.694200	8.017400
2268.517983	8.187900
2271.385117	7.912300
2268.741700	8.027600
2272.641500	7.726400
2260.898483	8.416200
2260.607850	8.441600
2268.717783	7.918200
2266.520333	7.907700
2260.152983	8.302200
2261.962350	8.179700
2259.758567	8.295700
2258.986050	8.212700
2255.696267	8.394700
2261.085400	8.021900
2259.650767	8.091100
2261.732433	7.959000
2263.817617	7.835800
2258.613233	8.084400
2250.410450	8.560400
2250.342633	8.534400
2253.793033	8.332500
2250.303617	8.418400
2247.189350	8.565800
2257.447117	7.929400
2250.863817	8.288200
2249.584933	8.359500
2250.492267	8.286100
2242.952667	8.632300
2247.878317	8.264500
2252.328067	7.950400
2246.906283	8.249700
2252.215267	7.921000
2249.886933	8.016600
2257.871233	7.489800
2243.909833	8.173800
2248.973950	7.840700
2245.345683	7.985100
2248.003950	7.817300
2248.090283	7.793100
2246.613417	7.885000
2243.840417	7.979800
2239.688250	8.200700
2244.262917	7.938100
2239.854900	8.183600
2239.232483	8.135700
2233.503050	8.457200
2239.096967	8.113000
2241.179167	7.984000
2245.681050	7.505300
2226.993617	8.619700
2229.727150	8.433800
2230.187917	8.365900
2225.848133	8.553600
2229.500100	8.325800
2230.771633	8.221800
2222.148450	8.713100
2232.702383	7.934700
2233.709017	7.870000
2237.137367	7.646200
2227.255083	8.206800
2227.809883	8.063400
2226.979717	8.026900
2222.386967	8.260900
2221.987867	8.227300
2224.244683	8.085300
2231.163567	7.665100
2229.608200	7.713500
2221.388150	8.073800
2223.199950	7.914200
2228.741550	7.509800
2221.067733	7.968600
2227.846833	7.554900
2218.692217	8.072800
2215.195883	8.106600
2214.082083	8.158800
2217.184517	7.977400
2221.263567	7.724200
2217.116133	7.852500
2212.596383	8.055300
2215.222833	7.843800
2219.318567	7.586500
2217.061850	7.745900
2213.409717	7.918300
2207.606933	8.181900
2204.014500	8.348300
2205.989183	8.177400
2204.197567	8.265700
2202.190617	8.383300
2198.634683	8.599500
2196.583583	8.697600
2204.755167	8.158900
2204.275117	8.176300
2209.330733	7.839900
2207.223767	7.939900
2199.292167	8.353600
2208.649983	7.778100
2199.003850	8.309000
2198.244183	8.342700
2198.579883	8.313900
2195.726433	8.466000
2188.345167	8.763400
2200.575150	7.999100
2190.256383	8.574600
2196.608350	8.179100
2198.677117	7.925200
2194.490983	8.122200
2200.551917	7.667200
2195.689750	7.942400
2194.505017	7.994500
2199.393900	7.704800
2192.089083	8.028300
2195.817350	7.746200
2192.608033	7.882200
2187.673200	8.181200
2184.586933	8.351400
2187.701350	8.155700
2190.865833	7.902000
2184.314167	8.134300
2188.896667	7.814800
2181.291783	8.223900
2182.436367	8.129500
2188.804400	7.756700
2188.015233	7.745400
2186.916050	7.673300
2187.098800	7.660700
2184.029400	7.814000
2193.025650	7.254800
2182.756033	7.719600
2178.376467	7.939900
2173.026200	8.187200
2179.276367	7.833700
2177.594550	7.901900
2178.213250	7.850000
2178.112983	7.731900
2168.540617	8.256400
2169.778133	8.115600
2174.064517	7.870900
2178.977183	7.548300
2181.768900	7.378400
2171.929567	7.909300
2170.405717	7.959700
2171.966817	7.850800
2171.511883	7.850400
2167.408250	8.090300
2163.505883	8.308800
2174.593383	7.596900
2170.552000	7.773500
2160.472333	8.370000
2167.449083	7.935900
2161.431617	8.248600
2164.272733	7.938000
2165.087933	7.874700
2164.676767	7.841500
2165.577650	7.763300
2168.610600	7.563200
2166.610017	7.677700
2163.186633	7.728300
2157.711183	8.013300
2164.719250	7.533800
2164.390850	7.539200
2153.036233	8.216700
2156.506267	8.004400
2144.587917	8.537800
2160.106683	7.592400
2154.658283	7.924200
2152.984467	8.002900
2154.244700	7.826900
2151.780933	7.924200
2157.423767	7.523800
2157.281200	7.509800
2152.476483	7.793100
2153.774583	7.680300
2152.402633	7.690800
2151.387967	7.645600
2151.878883	7.602300
2149.080433	7.759800
2151.779083	7.587600
2154.111750	7.318700
2147.672267	7.674400
2148.984350	7.535000
2150.886933	7.416900
2149.290600	7.495400
2145.757533	7.716600
2148.306317	7.511800
2146.748333	7.556100
2141.322400	7.845500
2154.352500	7.043300
2141.426767	7.789600
2142.866550	7.694000
2142.076417	7.644400
2146.454150	7.295900
2138.243833	7.731000
2144.161633	7.348800
2138.935700	7.649000
2132.836133	7.999200
2131.380650	8.047100
2136.376467	7.628200
2145.120583	7.078200
2136.929200	7.535600
2137.740000	7.431200
2139.418517	7.201300
2130.781117	7.707400
2130.535317	7.631500
2139.649133	7.083900
2135.532367	7.302400
2141.210983	6.936600
2137.870383	7.067400
2125.007767	7.820200
2133.135683	7.263300
2129.476450	7.445300
2127.457550	7.562300
2124.850150	7.688900
2123.102450	7.600700
2122.121983	7.640700
2132.964667	6.974800
2122.430800	7.594400
2120.262533	7.636800
2116.069667	7.786600
2124.802083	7.235700
2119.000067	7.537000
2115.111667	7.757200
2117.390050	7.609100
2119.741550	7.404200
2114.009883	7.624500
2118.287550	7.374200
2116.312067	7.490500
2112.042050	7.733300
2119.753033	7.118400
2113.888067	7.453600
2110.111933	7.632600
2110.293500	7.626500
2116.897300	7.206800
2111.287533	7.508400
2110.049600	7.503800
2104.343683	7.832400
2118.478417	6.896200
2112.380217	7.253200
2111.850383	7.263300
2110.585233	7.340400
2104.863550	7.502000
2109.116900	7.227200
2107.392817	7.321000
2110.577133	7.134000
2109.899033	7.063500
2103.486133	7.339200
2095.474833	7.740600
2096.499233	7.684500
2103.646100	7.255100
2101.659783	7.387200
2098.255883	7.545300
2091.311817	7.921300
2096.367617	7.585900
2096.485083	7.554300
2095.080183	7.608000
2099.032067	7.300000
2094.891383	7.521900
2089.866217	7.797400
2097.698400	7.336100
2095.491633	7.455600
2094.788000	7.482200
2092.062017	7.437400
2095.776700	7.192700
2091.559283	7.381200
2088.901933	7.500000
2090.751767	7.298500
2091.573533	7.233600
2089.344683	7.351200
2093.447967	7.098100
2087.519000	7.205600
2081.538100	7.593200
2085.158167	7.363000
2081.823700	7.555100
2081.522750	7.554800
2087.114683	7.157100
2084.004133	7.296000
2088.659650	6.939200
2081.265700	7.363700
2084.252700	7.193300
2078.337767	7.514200
2076.724100	7.530800
2082.924267	7.138600
2083.587700	7.060700
2086.865617	6.857500
2075.070950	7.395800
2072.063383	7.549500
2073.189050	7.399700
2070.846467	7.534900
2069.697883	7.592400
2079.939717	6.986800
2078.948133	6.916800
2072.167550	7.249400
2077.439917	6.875200
2071.303433	7.242300
2067.888383	7.428900
2070.908483	7.229400
2070.571983	7.213800
2070.608567	7.156300
2067.638550	7.329500
2067.040900	7.328000
2068.511600	7.216100
2059.751917	7.584400
2060.879250	7.505000
2063.312733	7.294800
2054.657367	7.796800
2058.246933	7.571700
2057.602633	7.605000
2057.211317	7.504900
2056.961917	7.488100
2062.610633	7.111200
2066.577867	6.876400
2059.234917	7.289500
2052.591350	7.668800
2054.969050	7.399700
2052.728517	7.504000
2044.859867	7.910500
2048.399300	7.717700
2048.548900	7.686800
2055.309267	7.274200
2042.765233	7.861200
2047.185167	7.582600
2051.806117	7.288000
2051.490000	7.294100
2053.704017	7.051300
2051.599883	7.079100
2045.993417	7.357000
2044.809100	7.381700
2047.740117	7.212100
2044.519683	7.400400
2047.852417	7.139200
2044.582683	7.218600
2044.444183	7.182000
2039.176350	7.431200
2037.143567	7.551100
2044.513467	7.107400
2042.265700	7.211900
2035.940850	7.523600
2042.176717	7.129600
2035.568883	7.442700
2033.270433	7.578600
2038.029067	7.300000
2030.976983	7.707900
2044.099050	6.770300
2039.477817	7.037800
2050.535250	6.332900
2030.874233	7.492800
2030.025883	7.404900
2036.419533	6.962400
2044.134767	6.408400
2035.370067	6.917500
2021.700267	7.688200
2033.530167	6.989500
2029.575250	7.183700
2028.907250	7.070600
2019.004100	7.655300
2031.109067	6.884800
2027.191050	7.116500
2030.568650	6.900800
2025.606267	7.182400
2019.007283	7.407300
2023.624400	7.131500
2021.865733	7.202100
2027.618183	6.856500
2016.306483	7.404900
2017.904600	7.280300
2016.243667	7.306300
2018.366850	7.159100
2021.994000	6.933500
2015.294983	7.323600
2011.814667	7.354600
2013.932133	7.231800
2011.219367	7.379800
2014.792900	7.190900
2008.886800	7.421900
2000.388483	7.892400
2003.928617	7.684300
2014.688267	7.010200
2012.723433	7.123800
2003.851267	7.656100
2000.891617	7.800700
2013.345217	6.927100
2008.406467	7.208800
2010.510750	7.028000
2013.780550	6.816200
2014.626133	6.729000
2008.285517	7.083700
2001.914933	7.404300
2005.102283	7.163700
2000.288500	7.464800
2012.691933	6.724800
2013.433333	6.599400
2005.235417	7.027900
1983.036633	8.298300
2006.316133	6.905700
2002.637983	7.111200
2001.393683	7.161600
2004.611917	6.834400
1998.802467	7.099600
1995.032467	7.304200
1997.102533	7.163700
1998.313683	7.062000
1993.296900	7.361300
2005.688917	6.483700
2001.363700	6.618200
1994.782550	6.969200
1994.686767	6.952300
1999.993067	6.612100
2000.150200	6.575600
1996.467817	6.753700
1994.174433	6.872700
1997.941450	6.583700
1994.605817	6.689500
1982.716717	7.370800
1986.991567	7.041700
1991.591067	6.744100
1986.248867	7.016800
1982.793000	7.227500
1982.637833	7.221900
1980.573867	7.323400
1984.734117	6.833800
1978.728817	7.170700
1975.957450	7.336400
1981.331350	7.010000
1979.155483	7.029900
1978.330917	7.027900
1988.581683	6.450300
1984.769517	6.631600
1980.030200	6.880400
1976.454183	7.082400
1978.930117	6.833200
1975.555700	6.908000
1975.342800	6.899300
1972.945283	7.023600
1972.765300	7.038500
1966.257817	7.419100
1971.090683	7.090200
1973.985433	6.941400
1981.594533	6.349500
1973.288450	6.654200
1965.714667	7.063600
1965.187633	7.046400
1968.217267	6.865300
1966.896767	6.942400
1964.902167	7.042600
1965.163333	7.023600
1962.898600	7.145300
1966.725017	6.670600
1958.474700	7.172600
1960.376133	7.048800
1955.285750	7.353200
1958.790700	7.007900
1950.293533	7.497600
1963.642917	6.687400
1957.599183	7.054200
1959.412333	6.937800
1958.266733	6.999900
1959.068700	6.872000
1955.031733	7.072500
1962.371500	6.633200
1953.637883	7.142700
1952.177750	7.229000
1940.763583	7.904700
1951.147667	7.300000
1954.345467	7.081300
1954.796300	7.014200
1960.826117	6.535000
1962.718417	6.376900
1964.506983	6.233700
1958.262317	6.506500
1948.200283	6.956100
1949.652283	6.839400
1948.361950	6.898100
1945.932233	7.020300
1950.857767	6.712600
1953.077517	6.541300
1949.071267	6.750400
1936.547733	7.486200
1940.791733	7.225800
1942.876183	7.100700
1931.564350	7.512500
1943.389367	6.691000
1943.662267	6.668500
1945.331300	6.563900
1945.332333	6.537300
1940.559283	6.793200
1948.538033	6.241500
1933.123000	7.105400
1944.921067	6.345400
1944.656967	6.365800
1932.291650	7.067300
1938.011017	6.719800
1934.507800	6.878900
1929.052600	7.140800
1931.372717	6.995800
1927.355600	7.220000
1933.323850	6.807800
1925.673800	7.116800
1922.137500	7.316600
1930.145983	6.803100
1924.682917	7.097500
1928.843983	6.819600
1930.467050	6.698900
1921.691417	7.210300
1930.218467	6.702100
1929.902600	6.677600
1935.555833	6.341400
1932.794700	6.367100
1935.934967	6.090400
1930.927917	6.332500
1926.284750	6.583700
1918.622950	6.941300
1918.622417	6.931600
1915.197817	7.083700
1916.168383	7.016100
1916.756467	6.902500
1913.130883	6.950400
1912.837583	6.938100
1920.247250	6.465800
1913.104333	6.870600
1919.690633	6.468000
1915.010900	6.724700
1912.891600	6.835700
1913.322250	6.804200
1916.502533	6.580200
1909.893150	6.960500
1910.523250	6.580100
1911.797300	6.481100
1905.551483	6.839100
1905.432567	6.851200
1912.688717	6.399100
1900.229450	7.114700
1899.698300	7.147400
1909.011767	6.596200
1904.476367	6.772900
1904.512050	6.740600
1906.033417	6.656200
1909.354417	6.436900
1906.669533	6.583500
1907.323300	6.534800
1892.235067	7.037800
1890.446617	7.085800
1894.851933	6.775500
1897.294267	6.673900
1893.903300	6.783800
1903.591550	6.109400
1895.327733	6.523800
1891.753367	6.734800
1892.648833	6.671400
1893.796200	6.579500
1896.005300	6.378500
1890.875750	6.569900
1892.264750	6.463100
1887.509750	6.725900
1884.773317	6.886900
1899.851650	5.988800
1894.965667	6.296200
1889.994033	6.567300
1885.992167	6.764200
1888.079167	6.346000
1880.819333	6.739200
1885.038383	6.492900
1880.399517	6.762400
1885.509517	6.438700
1883.681083	6.541800
1883.220800	6.557900
1884.965467	6.436900
1877.013950	6.603800
1878.953367	6.478300
1877.722683	6.534300
1880.586183	6.363900
1874.512050	6.578300
1870.795267	6.763300
1873.494433	6.594600
1877.233900	6.383900
1876.121267	6.446800
1880.633317	6.187600
1875.860950	6.354200
1874.970717	6.291100
1871.861883	6.463800
1865.653133	6.829800
1871.558450	6.476600
1875.988100	6.151700
1869.961200	6.482600
1870.084517	6.454300
1874.894033	6.149100
1862.996367	6.861400
1877.379367	5.988100
1870.021867	6.390700
1869.003150	6.415100
1865.643567	6.214300
1861.733667	6.431800
1861.586717	6.408400
1858.705933	6.564900
1853.071533	6.725700
1855.296000	6.565700
1858.042300	6.369200
1859.671967	6.267100
1849.400950	6.759800
1848.975550	6.748100
1854.116167	6.431500
1859.698317	6.072700
1856.409617	6.245800
1853.752650	6.403400
1855.163200	6.248900
1846.688650	6.608300
1852.266967	6.274000
1847.875283	6.510000
1844.985467	6.670600
1849.313667	6.274600
1845.832083	6.439800
1849.173217	6.228700
1854.362767	5.911300
1841.356250	6.665900
1843.164900	6.566600
1840.228800	6.707300
1845.733733	6.376200
1840.027150	6.717500
1838.722233	6.786900
1843.140950	6.211700
1841.977833	6.199200
1840.240867	6.279400
1837.975817	6.397900
1841.326233	6.198600
1842.902133	6.101700
1843.034850	6.089900
1838.837833	6.341700
1829.855700	6.740600
1830.906117	6.657700
1844.678083	5.828400
1832.584933	6.534300
1833.877917	6.375400
1842.436750	5.748800
1833.291017	6.253300
1829.871617	6.447100
1839.601100	5.844500
1829.387867	6.416200
1821.755033	6.850500
1833.748850	6.128600
1831.357100	6.251000
1832.964783	6.147300
1826.077967	6.503500
1829.365417	5.980000
1822.804717	6.353500
1829.939667	5.908600
1828.466767	5.972200
1820.977083	6.262200
1819.482850	6.311300
1821.068667	6.196900
1819.163967	6.290200
1818.015617	6.328000
1817.883900	6.326900
1821.028283	6.125700
1811.700433	6.690900
1816.552650	6.273800
1818.836817	6.117100
1811.417167	6.532600
1811.550567	6.507100
1807.122500	6.628700
1806.045900	6.671900
1817.577750	5.940500
1811.282800	6.301400
1808.790533	6.376200
1807.027300	6.375500
1799.081200	6.837800
1805.566283	6.449700
1804.558317	6.485800
1801.320167	6.681100
1803.709050	6.482600
1802.686383	6.515100
1802.233283	6.518100
1801.924850	6.544700
1805.696417	6.280300
1812.257733	5.883900
1805.642750	6.213800
1803.711550	5.915300
1798.173350	6.212600
1806.930367	5.682100
1796.955767	6.226600
1795.054267	6.215800
1788.614300	6.544100
1791.865800	6.326600
1794.101050	6.197900
1798.233417	5.928100
1791.098833	6.340800
1789.038350	6.324500
1796.307050	5.871800
1788.432817	6.325900
1788.817700	6.283100
1783.286233	6.507600
1787.472767	6.193000
1789.565617	6.042700
1793.291750	5.798600
1786.530067	6.182800
1788.500117	6.053800
1783.233733	6.341100
1796.390500	5.551700
1785.184500	6.204200
1781.392850	6.407900
1776.286950	6.589700
1777.135233	6.290400
1777.033150	6.267200
1774.401883	6.434100
1771.328417	6.619000
1762.810917	7.147600
1778.222700	6.238400
1769.508083	6.756300
1775.027300	6.414500
1779.747867	5.943700
1773.947283	6.268800
1771.128500	6.381800
1766.119833	6.644100
1772.518933	6.148800
1772.056800	6.169400
1775.372533	5.948700
1776.103050	5.889800
1765.409767	6.403900
1767.617333	6.191400
1764.759333	6.364200
1771.469400	5.933900
1761.080200	6.537500
1766.046783	6.226800
1765.250150	6.273800
1767.332967	6.135100
1765.793417	6.167800
1776.498500	5.410400
1771.582750	5.665100
1769.861367	5.726500
1766.229267	5.927800
1763.601317	6.055900
1771.051300	5.599100
1765.007683	5.906100
1759.129750	6.254000
1754.797267	6.193300
1764.892317	5.547400
1765.419283	5.487900
1765.723367	5.468200
1756.161100	5.875100
1754.853583	5.894400
1752.115100	5.988800
1752.618200	5.964500
1748.585750	6.179600
1745.119567	6.391300
1752.433000	5.875100
1743.983000	6.282500
1751.341100	5.836700
1751.278983	5.828100
1747.788683	6.019200
1743.085750	6.295700
1745.090950	6.151400
1737.969733	6.488400
1742.253317	6.215800
1737.642567	6.472600
1746.873817	5.919400
1743.122333	6.125100
1744.705050	6.018800
1741.759900	6.182300
1743.408467	6.021100
1732.924650	6.380600
1734.022017	6.271300
1734.758100	6.212300
1738.982517	5.963800
1733.344917	6.291400
1737.576467	6.035200
1740.224083	5.865000
1741.814800	5.765000
1740.218483	5.841900
1734.700933	6.149400
1731.909950	5.925800
1732.097283	5.890200
1721.214567	6.532600
1731.103867	5.927800
1734.081950	5.674700
1730.733050	5.819000
1717.729833	6.502800
1725.313750	6.077600
1726.112733	6.021900
1725.319450	6.048200
1714.795000	6.579200
1717.643400	6.303500
1724.970183	5.842800
1726.288717	5.748700
1722.139867	5.971600
1716.712933	6.279900
1723.279500	5.910500
1718.858783	6.154500
1725.795467	5.741800
1716.570100	5.942600
1721.781150	5.609000
1718.193217	5.799400
1711.901167	6.162700
1716.293417	5.760400
1706.536700	6.293600
1707.936833	6.225900
1706.538783	6.274500
1709.511450	6.074900
1712.431217	5.893600
1708.279533	6.050100
1713.995667	5.654500
1713.639650	5.645600
1712.029350	5.741000
1710.739567	5.804800
1709.592333	5.864100
1706.828583	6.015000
1709.626267	5.824000
1706.541917	5.940100
1704.962400	5.966600
1708.850883	5.735400
1704.462433	5.990100
1697.961683	6.369900
1703.709733	6.019500
1703.344417	6.026500
1710.710283	5.569800
1709.431117	5.616400
1707.219750	5.228300
1696.800283	5.810400
1699.045500	5.653100
1696.622950	5.786000
1695.929850	5.759300
1698.968133	5.562900
1689.914033	6.057000
1684.686450	6.365300
1689.019933	6.074100
1691.480433	5.929500
1688.398200	5.961200
1689.062067	5.839300
1686.272250	6.003800
1689.491033	5.799300
1689.168583	5.810400
1689.315883	5.784600
1687.531133	5.873400
1683.392700	6.095300
1675.833217	6.433900
1690.952267	5.324800
1681.601233	5.862900
1685.916450	5.599400
1687.568750	5.480000
1676.726733	6.122700
1687.239350	5.471300
1692.245417	5.143000
1676.363717	6.084700
1672.771867	6.017800
1680.424350	5.514800
1677.698783	5.645700
1672.292583	5.965800
1681.074017	5.413000
1689.678933	4.879800
1679.388367	5.468500
1676.906100	5.582600
1675.549667	5.429800
1674.733817	5.397400
1668.861233	5.714100
1675.248533	5.321100
1666.262950	5.848700
1675.299083	5.295900
1663.164700	5.988800
1664.851383	5.894400
1669.075817	5.629900
1670.562633	5.516100
1668.851667	5.452300
1657.180267	5.998000
1665.255967	5.515900
1656.435167	6.027700
1657.057500	5.988800
1655.669833	6.045000
1661.516633	5.715300
1660.409317	5.787400
1653.943917	6.173200
1657.651200	5.843900
1662.169850	5.531000
1655.552183	5.916600
1661.995950	5.505500
1659.840550	5.602100
1653.558183	5.974800
1654.116217	5.911900
1657.885200	5.678000
1650.412917	5.825500
1660.748383	5.137800
1650.389050	5.672600
1648.811083	5.732400
1651.562400	5.551400
1647.468733	5.775300
1649.929200	5.621600
1648.293133	5.665200
1652.457967	5.419900
1646.551600	5.744900
1639.695750	5.976800
1638.792583	5.895000
1636.072083	6.039000
1643.246167	5.582500
1637.032817	5.929900
1638.686467	5.812900
1638.034400	5.845100
1644.937350	5.429300
1633.753800	6.019400
1638.921033	5.445600
1634.436083	5.699400
1631.024267	5.885800
1634.152333	5.693100
1637.777050	5.456600
1635.731083	5.561100
1639.891967	5.316100
1638.782733	5.370600
1631.782050	5.522300
1627.862433	5.700000
1628.025417	5.677600
1627.508433	5.690700
1631.751450	5.426300
1634.931967	5.232100
1628.760767	5.555200
1633.347950	5.283200
1624.613550	5.794100
1623.311733	5.873400
1638.037433	4.646100
1631.645117	5.024800
1622.825467	5.535100
1623.505367	5.482000
1622.016283	5.506200
1614.871500	5.921900
1619.842800	5.624900
1624.610950	5.316800
1621.482550	5.444000
1620.933317	5.367100
1615.602450	5.660600
1621.190533	5.310000
1624.911883	5.060400
1624.380533	5.072100
1614.881100	5.595800
1618.315767	5.374600
1613.027767	5.694100
1613.527950	5.646800
1616.981967	5.443300
1609.372317	5.567200
1602.131167	5.919400
1606.710317	5.655100
1607.836017	5.585800
1614.871950	5.154200
1609.298317	5.474800
1604.935617	5.767300
1609.724000	5.456900
1615.115533	5.118900
1602.036400	5.895500
1610.891450	5.371100
1611.712500	5.308100
1598.808200	6.037700
1608.452683	5.427300
1609.727250	5.351900
1605.436867	5.582500
1608.858650	5.220800
1603.816367	5.436700
1602.718083	5.455200
1602.083250	5.458700
1598.968067	5.618800
1598.357450	5.639300
1594.903767	5.809600
1595.134367	5.708500
1592.427133	5.859000
1594.623717	5.698300
1597.847800	5.467100
1596.555433	5.494200
1599.452767	5.293300
1595.571167	5.505100
1594.656483	5.544000
1589.807633	5.505300
1591.079317	5.418100
1593.684217	5.202700
1593.352650	5.218100
1596.022633	4.961400
1592.183317	5.160100
1588.318683	5.326200
1580.536650	5.782100
1588.111067	5.309200
1585.816317	5.413900
1589.881667	5.082400
1583.649950	5.427200
1587.729500	5.150900
1577.925500	5.691800
1585.199783	5.201100
1583.004150	5.229800
1584.263533	5.127900
1589.938617	4.725100
1582.989600	5.034200
1575.386917	5.400700
1570.893733	5.644200
1572.776317	5.508700
1584.819417	4.761400
1574.152633	5.392500
1567.887317	5.741200
1569.934883	5.616900
1568.725667	5.683600
1573.651583	5.112300
1576.202750	4.891700
1573.854767	5.005600
1573.534417	5.016700
1565.112350	5.501000
1563.496467	5.578300
1562.476100	5.617400
1565.498367	5.432200
1564.698083	5.466600
1564.040967	5.489800
1561.078200	5.311100
1566.852967	4.944700
1567.619033	4.876200
1558.624733	5.408100
1559.571467	5.255500
1558.141717	5.248600
1564.446517	4.859800
1550.326017	5.659300
1557.923567	5.237500
1568.946417	4.579600
1556.537417	5.310400
1555.571000	5.357300
1550.988283	5.633100
1560.873250	4.883600
1551.460700	5.408600
1555.252450	5.144300
1560.444017	4.798600
1556.899667	4.982800
1550.567900	5.367800
1547.989183	5.504100
1549.603750	5.385200
1557.413967	4.600600
1550.051083	5.026200
1548.479700	5.108900
1549.249883	5.028300
1542.756783	5.214300
1548.509050	4.856600
1546.028300	4.977500
1540.299633	5.292900
1531.048867	5.728600
1541.480100	5.063600
1541.321183	5.039400
1538.797867	5.174500
1538.260767	5.188000
1537.339267	5.224600
1544.760617	4.670500
1532.286733	5.272800
1525.176983	5.713200
1538.292233	4.946100
1531.191367	5.300200
1529.879183	5.258400
1527.558050	5.399600
1534.867467	4.946800
1533.866067	5.002000
1537.309233	4.766400
1532.931583	5.022900
1528.517667	5.073100
1528.850117	5.008300
1520.086783	5.494200
1522.494083	5.356800
1521.373300	5.414900
1518.662300	5.579000
1521.758933	5.224800
1521.193817	5.180500
1524.420517	4.981000
1511.266183	5.742600
1526.089717	4.834900
1524.494817	4.948600
1512.841583	5.659800
1516.869817	5.415100
1523.332367	4.771900
1515.823617	5.161900
1521.794300	4.768700
1523.781350	4.634900
1513.929750	5.180300
1517.533783	4.917300
1517.246117	4.921000
1511.971400	5.225600
1511.592467	5.190100
1516.665133	4.745400
1521.274950	4.466900
1517.227850	4.676300
1508.478850	5.186300
1506.072767	5.330800
1496.708983	5.885400
1498.196117	5.793700
1507.568650	5.222300
1508.865683	5.130900
1510.958550	4.997900
1507.808550	5.083400
1514.072700	4.675100
1510.939767	4.858900
1509.316383	4.935600
1506.856967	5.069200
1509.388867	4.896700
1504.165733	5.214600
1505.717867	5.120200
1505.611900	4.588400
1495.586467	5.119300
1492.321350	5.334500
1495.688150	5.136500
1498.170600	4.909100
1496.773583	4.887300
1492.538567	5.124400
1501.847917	4.576900
1499.387950	4.685900
1502.370150	4.425200
1504.564950	4.276100
1499.475683	4.538100
1497.341900	4.617200
1500.361800	4.425200
1501.916133	4.310400
1496.675700	4.594700
1495.800217	4.631500
1490.599800	4.913600
1492.786817	4.777600
1482.289200	5.079200
1486.325517	4.753600
1491.814483	4.398900
1487.171767	4.666300
1479.185183	5.124600
1485.808733	4.718700
1488.874900	4.523900
1472.842333	5.475300
1490.310433	4.260000
1482.574517	4.603000
1486.235383	4.364100
1476.706900	4.920800
1469.589517	5.318500
1468.962517	5.322400
1473.051150	5.076800
1479.941100	4.659200
1477.900817	4.733800
1476.690617	4.697200
1468.267417	5.177800
1472.038800	4.964300
1473.429150	4.879700
1469.584583	5.078100
1474.942133	4.752600
1482.080333	4.299900
1480.902367	4.327900
1467.870433	4.808100
1462.167100	5.091500
1471.638467	4.509700
1470.868800	4.545500
1467.306167	4.754500
1468.591233	4.669500
1461.347633	5.104500
1459.097817	5.243200
1460.248950	5.040200
1466.848383	4.635600
1470.737750	4.368800
1464.739300	4.709000
1460.516100	4.751000
1466.066583	4.419000
1462.243017	4.631800
1456.450350	4.951700
1453.416933	4.960800
1462.396867	4.389400
1457.656617	4.645300
1459.068967	4.545100
1454.823317	4.673800
1451.243317	4.810600
1455.282167	4.528900
1449.552533	4.872300
1446.922783	5.003400
1446.331483	5.027400
1449.289583	4.809900
1449.125967	4.658500
1454.773633	4.308900
1444.801867	4.880500
1443.360583	4.952700
1448.551583	4.622700
1449.283750	4.582400
1445.302350	4.797200
1439.920733	5.112900
1432.569133	5.446800
1442.093617	4.845400
1445.653517	4.615900
1449.560467	4.325200
1437.801683	4.927800
1440.252517	4.728100
1438.701733	4.798200
1437.638367	4.839100
1441.190700	4.608500
1432.311033	5.114400
1432.944267	4.975000
1426.945017	5.225200
1438.489900	4.508300
1439.648300	4.425200
1429.926050	4.997900
1431.088500	4.911800
1436.921967	4.541200
1426.851167	5.151700
1435.394217	4.550800
1430.037150	4.645400
1423.317900	5.012300
1423.744367	4.944400
1428.755183	4.635600
1430.310733	4.473000
1430.077117	4.499200
1428.261667	4.570900
1426.056300	4.682000
1429.623567	4.285300
1422.628550	4.656500
1421.447950	4.712900
1424.771467	4.497100
1417.078367	4.952200
1423.931100	4.524500
1429.173417	4.195000
1419.857100	4.732700
1417.578083	4.879500
1424.263850	4.457900
1418.511533	4.491900
1408.003800	5.059100
1407.538783	5.058900
1408.454950	5.002700
1432.607650	3.450200
1423.942383	3.978000
1408.476350	4.882400
1417.211683	4.361700
1417.804700	4.291100
1405.630033	4.870200
1410.185483	4.574100
1414.212233	4.327500
1411.819700	4.449200
1395.941700	5.378300
1410.826783	4.494000
1413.268867	4.327900
1415.801500	4.199000
1400.627167	4.824400
1396.561833	5.035800
1408.015600	4.325300
1408.153483	4.316400
1407.172967	4.368700
1407.005133	4.356900
1400.309100	4.736300
1409.961317	4.141300
1406.615167	4.336600
1407.423550	4.266200
1399.970683	4.360200
1394.303817	4.640500
1393.264567	4.678300
1399.906433	4.267200
1397.592133	4.268400
1396.629600	4.280900
1395.530200	4.333100
1396.958783	4.229400
1400.976667	3.940000
1394.888600	4.187300
1387.259717	4.627000
1388.834050	4.535900
1390.012933	4.476600
1385.820983	4.644000
1382.913000	4.789400
1386.051433	4.582200
1391.406100	4.275800
1396.988167	3.901900
1385.867067	4.532800
1385.710550	4.355600
1377.446183	4.810800
1377.927867	4.771900
1380.028283	4.635600
1385.774317	4.296400
1385.002567	4.336900
1385.937650	4.052300
1374.373050	4.733900
1374.397983	4.727400
1376.954217	4.570000
1384.538400	4.043300
1377.086967	4.449400
1381.259117	4.184500
1369.815467	4.859800
1371.776117	4.723300
1378.481517	4.326700
1378.970617	4.198000
1377.140217	4.174000
1377.940200	4.100600
1372.519700	4.408100
1374.095350	4.282100
1370.722750	4.355000
1370.001883	4.378200
1371.378533	4.287000
1362.403350	4.815800
1370.415617	4.312000
1370.790050	4.299200
1362.951550	4.556300
1362.797367	4.569400
1362.990000	4.535600
1360.116217	4.688800
1358.974217	4.637500
1356.673950	4.719500
1358.287750	4.598900
1350.856500	5.063600
1359.733700	4.516400
1354.722700	4.826000
1356.542233	4.643400
1351.830500	4.904000
1351.620150	4.911800
1363.929267	4.145800
1351.683450	4.868300
1350.201483	4.969500
1348.065283	4.897800
1347.841850	4.888700
1349.605583	4.777800
1349.075200	4.773200
1351.941383	4.565400
1354.709117	4.243600
1344.123950	4.864100
1341.230033	4.993200
1347.233267	4.616200
1345.381883	4.716900
1344.829000	4.704500
1341.022200	4.751000
1353.443633	3.994800
1347.498200	4.329800
1352.128350	4.031600
1350.417967	4.005400
1346.770717	4.150600
1345.820417	4.144000
1345.677433	4.116300
1340.439050	4.415300
1342.977217	4.263400
1339.236783	4.314900
1337.729633	4.346700
1342.517567	4.032400
1344.023133	3.942600
1333.539117	4.552600
1326.559850	4.959200
1331.658417	4.446700
1332.997600	4.380500
1331.358817	4.488700
1328.961117	4.608400
1327.813400	4.610600
1324.671867	4.703800
1329.846883	4.395900
1331.523917	4.299100
1324.085817	4.712500
1320.912917	4.886800
1322.740167	4.759000
1325.017717	4.461100
1327.627600	4.262000
1332.522900	3.961100
1334.621317	3.820000
1322.839867	4.387300
1321.728700	4.415900
1310.187133	5.101800
1318.384717	4.595200
1320.673867	4.446700
1322.662417	4.320100
1324.268600	4.075100
1316.219667	4.478200
1314.626783	4.543800
1320.520250	4.192400
1319.313883	4.231200
1310.361067	4.689100
1317.490933	4.278900
1309.072600	4.741100
1307.086183	4.868100
1308.730967	4.775200
1314.559550	4.326500
1313.436150	4.199300
1304.755117	4.691200
1303.123967	4.767100
1307.242233	4.533900
1306.300233	4.595400
1307.402783	4.494000
1315.647117	3.903400
1310.219400	4.204700
1315.443067	3.871000
1307.995717	4.273300
1312.034733	3.952200
1301.928050	4.502900
1297.161700	4.751000
1307.192733	4.171200
1311.867283	3.868500
1311.224317	3.847600
1292.349183	4.716000
1304.404600	3.977600
1292.445317	4.672300
1294.757900	4.528700
1307.226083	3.705000
1292.105967	4.509700
1294.835000	4.341800
1293.072617	4.444600
1292.636133	4.440600
1287.563667	4.747900
1289.450817	4.587700
1288.353417	4.503400
1290.865800	4.332200
1282.847667	4.804600
1289.362533	4.385400
1286.755867	4.435600
1286.087350	4.455500
1293.141017	4.028200
1285.418767	4.493200
1286.214050	4.426400
1284.113417	4.541200
1291.647317	3.927100
1286.350000	4.187300
1298.597600	3.439700
1288.700267	4.010500
1292.141483	3.780600
1287.111917	4.074400
1279.933133	4.285200
1271.718183	4.773900
1286.596750	3.906200
1285.498650	3.948500
1282.636633	4.022400
1282.715150	3.919100
1273.643133	4.452000
1273.701500	4.451300
1279.855717	4.062400
1279.717167	4.063900
1272.096067	4.454800
1265.102233	4.709700
1280.125633	3.780600
1273.963100	4.136000
1275.445817	4.010200
1273.270967	4.074700
1273.269300	4.051400
1270.775300	4.164500
1269.118150	4.270700
1272.614750	4.048100
1269.770983	4.195800
1262.978633	4.349700
1264.130900	4.297400
1266.872733	4.118100
1268.988117	3.978700
1263.867050	4.260200
1263.548333	4.275000
1262.076867	4.216000
1261.425483	4.265100
1265.649200	4.003400
1268.582300	3.815600
1259.927100	4.187600
1266.167400	3.722300
1253.077417	4.481200
1253.470717	4.437400
1252.078933	4.507800
1260.660517	3.990400
1258.890067	3.890800
1250.455167	4.341100
1257.465800	3.891500
1253.896017	4.109800
1248.905383	4.337400
1243.562033	4.572600
1251.749233	4.082400
1249.206883	4.234500
1245.121133	4.471200
1248.140450	4.280600
1247.126533	4.312800
1242.652750	4.402700
1243.538700	4.328600
1248.738667	4.001800
1251.036417	3.859300
1237.451517	4.510300
1252.200317	3.590800
1251.034400	3.606200
1244.139783	4.021200
1242.034217	4.132000
1237.509700	4.425200
1244.224350	3.855800
1239.920900	4.055900
1235.596633	4.328700
1232.725617	4.487500
1235.481717	4.327900
1239.857350	4.056800
1236.398950	4.128200
1233.206250	4.218200
1231.974850	4.270700
1235.861867	4.035700
1234.840983	4.066500
1238.623683	3.791400
1237.652017	3.827800
1234.587067	4.010200
1237.456017	3.815800
1238.798717	3.700300
1235.919283	3.798300
1220.905533	4.502100
1229.814850	3.961400
1234.094333	3.675300
1226.862050	4.091600
1233.791617	3.548800
1228.053867	3.837400
1226.676167	3.898600
1228.215917	3.797200
1219.628517	4.308400
1226.275700	3.881900
1220.712700	4.178900
1218.457650	4.292000
1219.556333	4.197600
1216.922133	4.342500
1228.353050	3.653900
1225.474583	3.799500
1219.255483	4.056000
1217.442167	4.115500
1219.258750	3.991700
1225.010283	3.639000
1220.246283	3.836400
1220.498850	3.736700
1212.316017	4.181500
1216.531533	3.925200
1213.467400	4.118900
1208.539200	4.412000
1214.375250	4.037600
1209.559667	4.133800
1217.643500	3.632300
1211.509633	3.966000
1216.038067	3.676600
1206.054800	4.136000
1201.363517	4.368100
1205.173783	4.116900
1206.665583	4.022700
1210.142167	3.805000
1208.415983	3.885900
1203.373850	3.959000
1203.508783	3.932100
1194.107983	4.477500
1199.671617	4.138600
1200.547500	3.950000
1197.168367	4.098100
1202.140733	3.791100
1197.866333	4.021200
1203.728450	3.654800
1206.568083	3.472800
1199.775950	3.744800
1196.035833	3.843900
1196.385867	3.795700
1195.084167	3.851800
1191.697567	4.046500
1196.887517	3.727900
1193.996967	3.856900
1193.361433	3.711600
1195.044350	3.595700
1188.083550	4.003100
1189.815400	3.905300
1196.639667	3.417400
1192.261283	3.658500
1199.644850	3.179000
1198.836583	3.216300
1186.543333	3.924000
1181.813950	4.202900
1184.486550	3.834800
1190.130650	3.485600
1186.259633	3.677700
1191.181100	3.340400
1180.375050	3.834800
1182.072367	3.707200
1188.809617	3.271900
1183.086900	3.581000
1185.635000	3.399800
1176.401583	3.943200
1183.467300	3.471200
1182.900617	3.333400
1174.516817	3.825400
1183.462433	3.273000
1176.017117	3.660700
1170.641783	3.876600
1166.970083	4.089300
1162.160600	4.365200
1167.680400	4.060400
1171.365667	3.825700
1176.675217	3.464200
1170.101967	3.700900
1172.561450	3.530600
1173.333700	3.460700
1164.566433	3.987600
1171.260117	3.584500
1171.744983	3.533400
1178.887617	2.855800
1171.299250	3.342800
1167.485517	3.521500
1158.033867	4.062100
1165.807517	3.477700
1162.866250	3.637100
1164.986333	3.465900
1153.349483	4.169100
1153.854817	4.145200
1160.198133	3.780600
1159.839333	3.684900
1168.788667	3.046000
1162.894533	3.373800
1160.890117	3.478900
1155.155100	3.778400
1156.462083	3.636900
1148.151417	4.139500
1149.915517	4.033900
1150.496533	3.970200
1155.706883	3.660000
1158.203550	3.471200
1165.163750	2.890700
1147.199483	3.922200
1146.835350	3.918200
1147.453883	3.862800
1150.591717	3.553300
1149.069967	3.597100
1146.393917	3.715600
1152.960333	3.317100
1153.182933	3.283800
1149.127233	3.507300
1140.919000	3.777500
1143.860400	3.599000
1143.022783	3.630300
1139.968683	3.801300
1144.098600	3.491300
1131.985750	4.181000
1146.662600	3.304100
1135.676400	3.957200
1142.058383	3.554100
1138.783583	3.731100
1133.794083	4.049100
1141.491633	3.573300
1144.332017	3.246400
1134.439500	3.658400
1136.512000	3.524300
1140.794700	3.265100
1132.713117	3.737200
1131.815683	3.799500
1134.513683	3.587400
1130.174183	3.681000
1132.775150	3.507500
1138.030867	3.170200
1137.852217	3.162100
1132.992050	3.417200
1136.847983	3.162600
1136.622300	3.167600
1136.881733	3.127800
1138.236467	2.883700
1125.497117	3.603100
1122.574683	3.776700
1124.327917	3.648100
1119.722733	3.934200
1124.322917	3.634900
1122.141483	3.527100
1122.925450	3.482300
1114.481917	3.920200
1115.846683	3.815700
1117.067817	3.635200
1119.142217	3.446500
1118.672833	3.446700
1113.138217	3.749800
1122.902000	3.167000
1125.892550	2.972600
1119.245600	3.256100
1113.465917	3.491500
1116.195250	3.313100
1121.529900	3.006800
1118.893200	3.096800
1119.986983	2.889000
1121.190467	2.777200
1107.859933	3.539400
1112.223267	3.267400
1115.294883	3.064500
1108.966417	3.428500
1105.308300	3.492200
1101.803733	3.657000
1101.707117	3.656500
1105.608000	3.423200
1101.465950	3.667700
1100.697183	3.702600
1097.350333	3.704100
1094.116467	3.869800
1096.329250	3.743900
1102.207967	3.392500
1096.809450	3.585800
1098.421883	3.458700
1108.628533	2.827800
1103.034233	3.148500
1101.175867	3.255700
1095.257250	3.605900
1100.411900	3.104000
1091.331117	3.632500
1092.980967	3.522100
1097.426400	3.256100
1097.089283	3.233400
1093.107800	3.317300
1089.890233	3.478200
1096.722750	3.033800
1095.741617	3.092200
1090.634733	3.367500
1088.200917	3.485200
1087.008683	3.357900
1095.609667	2.820100
1088.770583	3.212400
1092.113783	3.000900
1086.341383	3.215700
1092.143050	2.831900
1089.077933	3.024600
1082.382633	3.393300
1079.574400	3.588500
1082.802000	3.400700
1088.614133	2.886000
1081.512283	3.264000
1082.726450	3.156500
1075.069833	3.617400
1080.825167	3.270400
1078.401617	3.400900
1080.272517	3.098800
1078.620450	3.174200
1077.443833	3.224700
1076.103900	3.285200
1075.211883	3.312900
1073.273533	3.315000
1068.302517	3.614800
1063.855650	3.876500
1075.008000	3.226700
1064.639583	3.822300
1068.119683	3.618900
1072.057650	3.306500
1073.922617	3.169600
1072.688050	3.247700
1075.561583	3.057300
1073.125050	3.043100
1077.522717	2.741500
1072.954283	2.970000
1064.160417	3.455800
1063.533700	3.476000
1062.025750	3.560300
1056.314217	3.665200
1060.544050	3.406400
1063.254633	3.235200
1061.837833	3.313200
1061.030900	3.216800
1061.000467	3.164500
1060.367400	3.156500
1055.145167	3.491500
1062.833683	3.061200
1060.502217	3.189100
1052.793283	3.571200
1054.470583	3.315000
1050.451400	3.563000
1055.577917	3.237400
1046.486183	3.771000
1046.974833	3.736200
1052.652033	3.366300
1050.823483	3.304200
1048.697550	3.422000
1053.220233	3.115800
1049.065000	3.380000
1042.608750	3.613700
1044.932150	3.427400
1040.330467	3.686200
1046.349217	3.346000
1045.640467	3.388600
1046.129733	3.334200
1045.114950	3.171200
1042.547050	3.330200
1041.258667	3.403000
1046.948200	3.039800
1038.611000	3.421700
1045.821700	2.948000
1037.265367	3.392500
1043.057533	3.041100
1037.063133	3.392100
1034.967383	3.509100
1037.312883	3.294300
1035.605483	3.355800
1043.285167	2.875900
1039.058150	3.112700
1037.816133	3.158700
1029.372583	3.560700
1032.641050	3.350900
1034.526233	3.192300
1032.471850	3.306800
1028.442783	3.533100
1037.389850	2.973800
1023.502517	3.523600
1028.282700	3.218600
1034.330617	2.856100
1026.752600	3.287600
1023.191083	3.346800
1032.494100	2.799800
1031.305067	2.820100
1029.453083	2.899500
1022.573400	3.168200
1021.782717	3.169900
1024.681367	2.967700
1025.130850	2.933000
1034.384583	2.369700
1024.694617	2.925100
1023.769217	2.900200
1019.368667	3.117400
1013.716783	3.457200
1018.471050	3.160400
1019.995183	3.041100
1012.783383	3.465300
1021.336883	2.954700
1017.594967	3.140200
1019.868767	2.934400
1012.346083	3.124200
1007.155900	3.420800
1000.166217	3.828400
1004.095967	3.619900
1009.773733	3.213600
1005.934767	3.427900
1006.510317	3.383200
1010.621033	3.126900
1006.948000	3.287600
1020.449367	2.452300
1017.383600	2.588300
1008.209100	3.099500
1008.074400	3.089000
1006.272900	3.174800
1010.182367	2.915200
1006.329967	3.145300
1009.637733	2.955300
1010.519967	2.888500
1016.758217	2.154700
1004.040083	2.868900
1002.041100	2.982200
1014.434517	2.208700
1000.382333	2.937000
994.492417	3.205600
993.931283	3.217200
993.590000	3.220100
1001.778600	2.701400
998.337700	2.789900
997.348083	2.835000
986.194083	3.486900
984.799950	3.580100
990.135900	3.254600
990.056917	3.255700
985.452217	3.507400
985.073667	3.525400
990.534800	3.191000
990.977333	3.154200
984.765283	3.181200
983.034117	3.247900
988.029150	2.951900
991.769267	2.689300
987.835517	2.902600
983.446183	3.171300
983.649150	3.131600
981.429283	3.255600
983.154417	3.035800
979.646217	3.203200
980.581183	3.090900
982.460583	2.996700
987.978467	2.653000
977.430967	3.265600
975.514683	3.370500
982.520583	2.944500
981.844967	2.893300
978.655833	2.939100
967.419933	3.594600
976.140050	3.058100
975.282967	3.047800
977.386350	2.816000
975.833933	2.899500
971.168050	3.146000
971.910583	3.082200
967.235117	3.165700
969.384067	3.020800
963.978367	3.325600
969.556567	2.985400
972.537483	2.790600
965.091600	3.220700
964.599633	3.225300
972.956900	2.710700
965.412217	3.046300
957.824967	3.468700
962.181317	3.198400
954.180250	3.665900
968.064383	2.806800
962.602550	3.125600
968.325067	2.759200
962.213000	3.104600
960.423383	2.899500
949.596333	3.518100
955.621200	3.150800
956.142583	3.111900
962.845950	2.669300
948.379317	3.511000
939.169733	3.990900
953.167567	3.065200
947.610033	3.363300
950.835833	3.161700
957.969450	2.683100
960.609967	2.465500
962.019683	2.369700
956.600183	2.654700
956.226917	2.615200
949.233633	3.036300
947.815333	3.090300
953.213317	2.742700
946.122783	3.161700
950.213450	2.629400
953.777117	2.370400
951.435550	2.396000
951.183633	2.403000
947.566500	2.609900
945.611550	2.702600
936.287050	3.140300
945.766883	2.517300
941.824950	2.740400
938.406883	2.925000
944.003417	2.582800
940.546233	2.763600
944.111483	2.422200
935.418267	2.925700
938.866950	2.697500
939.581733	2.630700
940.954833	2.465100
936.950400	2.509400
927.383150	3.065300
932.948533	2.711700
933.086850	2.678300
933.334267	2.680000
927.730333	2.971200
923.441950	3.055100
934.676917	2.394700
931.582867	2.560300
930.678117	2.602300
926.569317	2.704000
928.419933	2.554800
913.360283	3.426600
921.006600	2.974700
927.089650	2.603300
928.743067	2.472400
926.682383	2.369700
923.427233	2.572500
919.293900	2.814500
917.170217	2.922400
928.400200	2.155700
919.992733	2.582400
921.307433	2.523600
916.361633	2.793300
919.796333	2.582400
920.875167	2.512900
917.814017	2.594500
924.273233	2.086500
917.499767	2.469700
919.248800	2.350700
914.108200	2.655800
909.330533	2.779500
904.492933	3.038100
904.014267	3.078700
910.974450	2.647700
916.817050	2.305100
915.487850	2.365700
917.111300	2.080100
906.320383	2.707200
902.026317	2.935000
900.892983	2.991900
909.556967	2.475400
905.231117	2.734000
901.160933	2.765700
905.888817	2.479300
901.855217	2.696200
897.466967	2.957800
897.765667	2.916700
897.168383	2.909400
891.089217	3.276100
899.297067	2.767600
906.567100	2.314400
905.134167	2.368600
896.628483	2.663400
904.915233	2.137500
902.396717	2.243800
893.807550	2.763500
894.505167	2.695900
893.706983	2.596800
884.112483	3.147300
882.474500	3.242000
889.513250	2.849600
891.007683	2.765700
893.177317	2.615800
886.454750	2.814500
892.297200	2.456600
891.335050	2.525300
890.220983	2.572800
887.985800	2.643800
880.411517	3.070900
888.429017	2.572000
889.000133	2.514300
891.838250	2.297900
889.614733	2.405100
888.329567	2.324500
886.448400	2.345000
870.420933	3.222900
877.217783	2.868900
890.015883	2.067300
884.785733	2.361300
887.335750	2.126600
877.954417	2.519500
873.684533	2.729700
872.274217	2.805700
872.795883	2.757900
875.739850	2.420900
878.048633	2.263500
878.894833	2.196600
876.684200	2.327000
870.353333	2.687100
873.740017	2.458000
860.108633	3.064200
872.527883	2.315700
874.736967	2.174500
863.169883	2.879700
862.431817	2.803900
863.489250	2.710700
860.100900	2.911700
860.248017	2.922700
857.571983	3.068400
863.700933	2.713800
864.741450	2.489600
863.055100	2.527100
851.164400	3.237800
864.907033	2.394000
859.462333	2.710200
857.426300	2.789300
852.608250	2.954900
868.314683	1.943700
857.301267	2.569000
857.816350	2.517800
854.391733	2.666700
851.411600	2.757200
858.947683	2.279400
853.237517	2.603500
844.676683	3.159300
846.038933	3.051600
844.107383	3.169200
849.711733	2.737800
850.959050	2.639000
854.577467	2.404900
841.538017	3.164500
848.120067	2.695600
849.948117	2.547400
848.473100	2.599100
848.387017	2.596300
846.903733	2.666700
851.061733	2.402400
840.964050	2.793500
835.848350	3.086300
837.787400	2.966900
843.440517	2.602300
841.675800	2.620400
840.337433	2.598900
834.845183	2.908200
839.138250	2.647400
833.878283	2.962800
839.857350	2.595800
833.186467	2.915200
839.717200	2.390000
838.358483	2.443200
837.449667	2.478700
828.618300	3.005600
840.823233	2.282100
836.675100	2.477900
832.157950	2.671100
835.574883	2.443200
839.614867	2.179600
837.352900	2.284400
832.090933	2.503800
822.286533	3.048300
828.147567	2.683300
832.967800	2.382500
831.321050	2.435900
828.347733	2.597400
833.859217	2.042800
824.266883	2.587200
822.341767	2.687200
818.289283	2.919300
822.580000	2.557100
825.037350	2.339600
834.983467	1.677400
814.832383	2.879100
814.850150	2.859500
815.999350	2.801600
816.340233	2.750400
820.639967	2.433400
814.907567	2.751100
824.248883	2.163600
818.680100	2.453600
820.560233	2.226000
822.175550	2.090900
815.293467	2.471800
810.894567	2.737600
813.602367	2.551600
817.203333	2.331000
815.988183	2.245200
811.470367	2.455600
808.691467	2.615200
797.430050	3.286700
809.681017	2.540800
799.405483	3.171000
800.657267	2.908900
797.899100	3.070100
808.066100	2.420300
813.349933	2.090400
812.532317	2.025700
805.930450	2.330000
803.105700	2.464100
799.104767	2.701900
808.479483	2.132700
807.606650	2.163200
795.223600	2.828300
793.025167	2.839900
795.853583	2.661000
797.039483	2.585100
795.509350	2.634200
797.182367	2.436400
795.091200	2.545400
798.235583	2.331300
797.382883	2.354400
788.709350	2.863400
800.338450	2.138900
793.978317	2.314000
795.460433	2.194200
798.959600	1.926800
793.775067	2.224300
796.313883	2.064900
787.050083	2.593200
786.069850	2.446700
781.680417	2.719600
785.684017	2.487700
784.399633	2.544600
780.852117	2.642500
783.497583	2.472300
789.972133	2.055000
785.387767	2.310700
784.966783	2.331300
780.247950	2.627300
780.923933	2.401200
781.719667	2.334100
779.745667	2.416900
780.024467	2.394400
781.483117	2.275300
781.872017	2.112400
775.302917	2.490400
775.837883	2.472000
779.869650	2.210000
784.246450	1.914800
783.856933	1.907400
770.171050	2.522300
770.405050	2.477900
776.784583	2.086500
776.895450	2.057000
769.237383	2.467200
771.046933	2.339100
774.471417	2.129800
770.987917	2.330200
762.982200	2.819300
765.406567	2.676100
763.182133	2.637600
763.925483	2.546100
759.779633	2.755200
758.073333	2.854200
763.603650	2.535500
765.404217	2.414800
767.351367	2.226400
767.953117	2.047600
764.365683	2.231400
759.168350	2.519900
757.572217	2.589100
763.561933	2.108100
755.764283	2.542800
757.686017	2.404900
760.336967	2.249500
761.675050	2.160500
758.107117	2.336200
755.208267	2.318200
753.814100	2.404400
759.567967	2.017300
759.211050	2.038400
753.637533	2.208300
750.347000	2.378900
750.892917	2.329000
746.626233	2.565300
750.906467	2.274700
746.419733	2.564400
750.708133	2.229900
740.034483	2.854500
749.966217	2.254300
751.711317	2.148100
748.869333	2.200800
748.164433	2.077800
735.484700	2.789300
745.164633	2.214300
750.952683	1.831200
749.358967	1.894900
743.107050	2.201900
743.823150	2.035400
742.184133	2.088900
743.434700	1.991300
733.705333	2.546400
731.028933	2.705400
746.772083	1.750800
739.099083	2.001600
735.793033	2.189400
732.809250	2.355200
729.606817	2.540800
735.848367	2.114200
730.518917	2.405500
727.497000	2.598800
725.833650	2.693000
737.114233	1.976400
726.816783	2.578200
739.699450	1.601900
728.189117	2.306800
731.532267	2.055700
727.640783	2.270400
733.504917	1.809700
724.798217	2.250100
724.320350	2.233400
723.467000	2.276000
726.326533	2.078400
729.218550	1.895600
723.596650	2.162900
724.597917	1.958800
721.919150	2.102600
717.762133	2.331300
721.289717	2.123200
720.898550	2.132000
722.959817	1.981600
722.990717	1.774900
719.771833	1.935900
720.081083	1.892400
710.376767	2.445400
710.172683	2.348100
715.197200	2.004800
720.804850	1.632800
715.119233	1.997700
710.329433	2.238600
710.211867	2.232700
710.711683	2.015700
704.848033	2.348100
710.382300	2.042600
717.015117	1.617700
705.477733	2.194500
707.494617	2.011900
707.095950	2.028500
708.606750	1.907600
711.966633	1.691400
707.264983	1.982700
708.603217	1.875400
700.019700	2.309600
697.762517	2.422900
693.693567	2.653000
703.610533	2.026200
703.960250	1.880900
700.439000	2.055800
706.273350	1.699700
702.412283	1.923900
690.687367	2.599900
696.275667	2.262700
698.890517	1.939600
695.725083	2.055000
682.128417	2.866300
691.827317	2.266900
691.156700	2.314400
689.610917	2.407300
692.286917	2.130400
690.297500	2.153600
689.848350	2.171300
685.648617	2.417800
686.259383	2.336400
686.304417	2.235700
683.355133	2.411700
687.058350	2.191400
694.552083	1.701900
696.279517	1.562500
686.769967	2.080000
677.055117	2.475400
682.784017	2.110300
690.354883	1.630500
686.395933	1.872300
677.541400	2.255000
678.528167	2.165200
674.270933	2.411700
686.953967	1.645900
676.960850	2.225900
682.848133	1.863900
674.873633	2.105400
678.106583	1.932900
676.857017	1.980400
676.692400	1.952600
681.207450	1.572500
673.623583	1.976100
673.593533	1.944900
671.663067	2.055700
673.409283	1.932600
674.983600	1.831100
674.616083	1.773900
670.553717	1.858000
663.548200	2.251700
671.100533	1.793400
661.825217	2.355700
658.396167	2.530600
662.497850	2.255600
659.131000	2.292800
669.691367	1.642000
663.816950	1.969100
652.280833	2.666700
658.566900	2.189300
652.857433	2.506800
657.620233	2.213400
660.549900	2.027300
659.905400	2.069300
659.642167	2.057500
656.757000	2.012300
659.051783	1.859700
657.413450	1.951400
652.345550	2.234000
654.904383	2.032500
659.629983	1.716900
644.604250	2.629400
660.388400	1.667600
650.326883	2.218800
652.031667	2.116900
653.786200	1.824200
646.138733	2.266800
644.327000	2.339000
645.059917	2.282500
641.987617	2.425000
650.277200	1.823600
652.444950	1.674800
648.382100	1.929800
642.577983	2.262900
642.163950	2.287700
643.717950	2.159900
639.116367	2.265400
648.193250	1.715900
643.846933	1.936500
641.443500	2.084900
640.037250	2.152100
637.580150	2.313200
642.842667	1.798000
637.136067	2.106700
640.567850	1.898300
635.791267	2.168200
631.380850	2.378300
640.942150	1.755800
639.928183	1.811700
636.559333	1.998600
636.277000	1.988300
631.094033	2.284200
634.245133	1.977900
639.296983	1.578300
639.385267	1.544500
625.417350	2.339000
627.162667	2.195800
630.576983	1.867500
631.717083	1.775100
635.210617	1.538800
625.469400	2.098700
623.966250	2.169200
630.254450	1.774400
634.633233	1.305600
625.898817	1.802500
620.458200	2.091200
615.014133	2.418000
623.347833	1.870800
628.401083	1.565700
629.959433	1.439100
623.102200	1.836800
621.397050	1.901000
615.919467	2.200600
612.654483	2.286600
613.973767	2.153800
618.340733	1.892400
611.156500	2.299400
614.757700	2.102600
616.886800	1.966700
616.949483	1.729800
614.677867	1.861000
612.737183	1.936800
613.887600	1.866200
609.270650	2.070800
603.560733	2.299800
610.738750	1.857500
612.852450	1.681400
605.590033	2.053500
615.179550	1.469900
619.376333	1.193100
618.732267	1.054000
606.099900	1.779200
603.394717	1.923100
610.838117	1.475800
605.858683	1.731600
605.477583	1.712700
602.313383	1.915200
602.821417	1.849600
606.167767	1.628800
601.117100	1.922000
597.444467	2.033200
586.986583	2.567400
589.195600	2.438600
595.206950	2.060300
598.392733	1.805700
593.072967	2.030800
593.235650	2.020100
598.155250	1.705100
592.630617	2.014600
593.651667	1.937500
594.863067	1.825900
591.835333	1.934400
594.189933	1.790400
587.592583	2.156100
596.371967	1.635400
593.181683	1.798500
595.656167	1.654000
591.280200	1.684400
592.038300	1.617200
580.123783	2.300700
588.310433	1.791300
589.464733	1.609200
590.821083	1.478100
570.748833	2.665500
586.343817	1.698400
583.874717	1.829500
584.164167	1.792300
578.645783	1.923900
582.425933	1.653300
579.525483	1.827000
580.087550	1.767200
574.502083	2.034000
579.913983	1.628400
572.917700	2.017700
580.188767	1.564000
582.663033	1.387500
573.291950	1.927400
578.343300	1.599500
566.665117	2.111800
574.755933	1.620600
576.154800	1.508300
572.324133	1.740300
567.654000	1.887200
569.486850	1.754600
574.951383	1.425600
569.585933	1.734300
571.326283	1.615500
562.875817	2.088700
568.076033	1.629600
565.086850	1.757300
567.848933	1.577700
560.149100	2.015900
568.326717	1.501900
563.458633	1.798500
566.487483	1.510500
566.387133	1.404600
555.672633	2.029500
554.596350	2.099000
565.238833	1.455000
562.191500	1.615100
555.988183	1.995300
562.131783	1.618800
554.577450	2.051900
557.288167	1.874500
557.055217	1.825600
554.689317	1.687900
556.155433	1.567200
551.391100	1.867400
554.781900	1.652600
547.728250	1.931900
554.578733	1.500600
558.902633	1.225200
557.438800	1.295300
548.142567	1.832500
555.642800	1.354700
550.420133	1.467600
550.660517	1.411600
549.614983	1.478100
546.652300	1.626200
547.187000	1.592600
558.159667	0.908500
549.401733	1.326000
544.649567	1.575100
539.739317	1.857700
544.029233	1.594800
542.214350	1.541000
544.674800	1.388300
548.126333	1.136700
544.460833	1.336500
536.197033	1.731300
545.099433	1.110900
533.881850	1.731200
534.039000	1.723100
538.402050	1.426400
535.693867	1.462900
539.200283	1.193100
545.794517	0.800500
541.195233	1.056900
524.668183	2.003700
520.232583	2.278800
529.861750	1.707500
529.410083	1.740900
527.121500	1.661000
522.726800	1.843700
522.817767	1.822900
527.024350	1.565900
529.307850	1.420400
518.015600	2.099900
518.000467	2.105200
513.119267	2.387200
518.471950	1.892000
522.548400	1.523000
523.131683	1.476000
533.085217	0.865000
525.384917	1.316800
512.997083	2.047200
511.862883	2.086500
511.485300	2.100500
517.785133	1.711500
514.441033	1.917300
517.061300	1.730600
515.000617	1.515400
512.789317	1.628200
508.140450	1.862900
512.496033	1.588200
507.721050	1.887200
512.359817	1.624900
505.953900	1.988000
503.793783	2.115900
510.059083	1.510200
504.807050	1.755800
509.584067	1.442500
505.371450	1.684100
503.831950	1.806800
499.179033	2.055000
500.028517	2.000800
503.027450	1.807100
500.876100	1.758500
500.094700	1.686200
501.213583	1.608300
500.727800	1.628600
493.713067	1.992100
503.659383	1.432800
508.989900	1.091600
499.134050	1.660700
502.276250	1.447400
498.720450	1.669100
497.700933	1.616700
494.343267	1.627000
494.899750	1.566500
485.563783	2.065500
488.961667	1.848700
496.592000	1.401800
493.674850	1.570400
498.492983	1.269600
495.373767	1.405300
493.277483	1.262400
491.439450	1.346600
491.109017	1.343500
481.053117	1.929100
485.121800	1.705400
490.199550	1.398200
478.320700	2.095400
483.759283	1.747500
476.390733	1.915200
479.964867	1.644700
481.561717	1.536400
481.698183	1.517100
464.507833	2.542800
480.046200	1.602800
484.220183	1.341000
479.559700	1.623800
480.385117	1.507300
480.634933	1.400700
474.689683	1.717200
472.570300	1.769900
477.224383	1.476600
475.903617	1.533400
472.231533	1.750800
472.605050	1.703600
472.001100	1.707500
470.537767	1.772800
473.073667	1.575700
468.048017	1.735600
468.659017	1.675900
466.416817	1.786900
479.115483	0.982800
476.184583	0.965400
464.406167	1.624900
463.458300	1.671200
469.793233	1.273500
466.568200	1.442600
471.364967	1.137700
456.409817	1.890700
462.242317	1.537900
464.994733	1.340400
466.574200	1.236800
458.096617	1.661200
462.302783	1.375800
457.810633	1.613100
465.130367	1.176700
459.329967	1.518400
462.952983	1.274400
460.831200	1.356800
450.605017	1.768900
455.909700	1.439900
462.013267	1.046200
459.183883	1.178100
453.529683	1.357800
442.050900	1.992800
448.718983	1.599300
443.132883	1.935300
447.575450	1.668200
457.332350	1.093700
457.694767	0.868000
458.007033	0.776400
442.609067	1.671400
448.936400	1.253600
447.571983	1.312500
445.219300	1.430300
439.218517	1.614400
438.734900	1.615100
441.767433	1.431600
437.231533	1.686600
435.865867	1.762900
441.380300	1.390700
442.045917	1.306300
442.802233	1.227600
436.875683	1.565100
441.846267	1.247800
443.861117	1.092400
444.636183	0.948900
433.545983	1.581000
435.217067	1.483900
437.488217	1.351300
437.571050	1.303400
427.980950	1.853300
443.138283	0.908100
429.285933	1.734600
436.057567	1.300300
430.274383	1.610700
431.016550	1.247300
427.329400	1.429400
432.439367	1.122700
419.205050	1.894400
423.803417	1.513300
429.616250	1.133900
418.679417	1.778500
429.193033	1.138500
426.508433	1.287600
420.859383	1.615500
429.975167	1.037500
420.219967	1.635400
418.025083	1.744500
423.984383	1.385400
425.332267	1.239400
424.044267	1.220800
418.849150	1.498400
418.344333	1.516800
417.619867	1.544500
419.869600	1.408400
413.825400	1.741700
422.951083	1.169100
429.519100	0.656600
422.745833	0.809100
416.774950	1.137200
411.952967	1.403800
408.852667	1.587700
413.026067	1.200400
412.033567	1.204600
406.958500	1.487900
408.778067	1.361200
408.180267	1.367200
410.746000	1.211300
408.561167	1.316500
407.221167	1.383100
408.085483	1.142400
398.438433	1.690500
403.663167	1.373800
403.146983	1.359000
406.574650	1.124600
399.936467	1.470700
402.253483	1.329900
408.802650	0.909800
398.762000	1.468400
401.223533	1.305900
401.021200	1.289300
399.566983	1.349400
398.797983	1.387200
400.440433	1.274100
396.681433	1.458000
390.930367	1.494700
387.025550	1.683500
397.148717	1.059100
389.658150	1.507100
395.901850	0.961100
394.715233	1.021500
395.339833	0.967200
396.187017	0.904600
378.561450	1.827500
380.352017	1.689700
384.035333	1.467600
389.619067	1.119100
388.581733	1.180200
389.959300	1.080500
390.723700	0.921200
391.857933	0.744300
385.810833	1.080900
381.348167	1.339600
392.018783	0.681600
378.025933	1.502100
383.935167	1.149700
387.989717	0.910300
391.808300	0.584000
376.097083	1.269000
373.659183	1.399800
372.906717	1.443100
372.630800	1.447400
379.475200	0.987500
363.424417	1.939600
372.108450	1.400000
371.091000	1.451900
383.420717	0.680800
368.690950	1.549100
373.109633	1.155000
375.462567	0.945700
372.700983	1.039500
365.495583	1.446600
360.141450	1.722800
360.672133	1.710300
358.199617	1.852000
376.421783	0.764100
373.793533	0.725400
361.138100	1.452200
371.181050	0.813500
367.037133	1.051500
368.749300	0.834200
367.843533	0.819000
355.336200	1.541000
359.661367	1.256500
353.491317	1.547500
355.107100	1.360700
356.371667	1.270900
358.246250	1.173200
364.762433	0.763800
362.767300	0.883400
357.390333	1.176300
359.459150	0.879500
359.817483	0.859200
358.763117	0.853900
352.632417	1.189300
347.026600	1.507700
352.659883	1.173900
346.522583	1.385400
355.086667	0.852400
350.568633	1.119900
358.305383	0.641700
347.724867	1.144000
346.667317	1.150300
341.899717	1.381000
345.531183	1.143000
358.380900	0.373100
346.979500	1.029800
339.324400	1.423700
343.048433	1.124700
348.723683	0.738900
348.805583	0.701100
344.685567	0.910900
341.703900	1.075100
341.620950	1.034900
339.711700	1.045400
342.076383	0.874200
328.499517	1.700800
329.967850	1.572500
328.947333	1.524000
336.024467	1.110100
345.694133	0.461700
335.458550	1.063100
330.638667	1.331200
335.695083	1.020300
332.192000	1.125500
325.827283	1.468800
329.451283	1.230600
334.902150	0.897800
336.531683	0.815700
327.657583	1.325700
323.678433	1.536600
330.465233	1.134000
337.577867	0.730900
336.120867	0.799900
327.897567	1.258600
332.798483	0.962400
330.018333	1.126200
334.498233	0.842400
328.043433	1.210200
320.941500	1.619000
325.353883	1.353900
326.103617	1.320700
327.686667	1.219300
324.227767	1.428700
327.488217	1.224100
328.953133	1.131900
325.150033	1.334400
334.632733	0.767100
330.103400	1.055000
329.897250	1.039100
332.648700	0.857600
328.138167	1.113400
332.864067	0.809500
326.909483	1.152900
321.969150	1.436900
328.692283	1.026300
333.002150	0.770300
339.469167	0.374200
327.279000	1.064900
324.489450	1.234700
326.104633	1.131300
331.999750	0.791300
324.791333	1.182000
333.406600	0.638000
325.718883	1.102500
326.506633	1.045200
320.932667	1.362100
318.046883	1.529700
325.275500	1.126700
326.108967	1.066900
314.501067	1.749700
317.322883	1.575300
326.112667	1.054600
324.533100	1.143200
327.839800	0.934700
334.512017	0.508600
325.591367	1.041400
323.151017	1.183000
320.271200	1.320200
325.517983	0.999600
326.492950	0.934700
323.372283	1.113000
325.131883	1.009200
321.648217	1.219900
332.592483	0.552900
328.452350	0.793400
330.879433	0.622500
325.971117	0.907900
329.060167	0.733300
325.381467	0.925900
324.783950	0.956900
328.431750	0.727700
322.993433	1.060200
327.666500	0.780500
326.742117	0.802300
321.874000	1.094600
334.643067	0.341200
326.024167	0.834100
316.345133	1.389300
321.611367	1.071100
313.881417	1.554400
322.165950	1.054100
323.356867	1.006000
321.904850	1.084700
315.254150	1.487000
327.650950	0.725900
324.405583	0.902700
330.862783	0.502500
332.254600	0.436100
330.157467	0.530500
325.154217	0.231400
286.774100	0.139400
276.860783	0.647100
269.079433	1.025100
276.090617	0.591700
263.622950	1.053200
263.134917	1.087000
263.204167	1.066600
270.337217	0.609700
270.122417	0.560200
268.385667	0.667600
265.607283	0.823200
267.937500	0.684800
256.686267	1.208800
264.780267	0.722800
262.128417	0.868300
264.881067	0.693700
264.313500	0.609800
262.518000	0.682100
252.109633	1.284000
251.076450	1.346300
255.245800	1.106900
254.380200	1.199000
256.785767	0.969700
256.175433	0.870300
259.054617	0.689800
254.916833	0.920100
253.177983	0.997200
245.745650	1.390700
253.501200	0.924500
253.563850	0.909800
256.768433	0.704400
257.604700	0.494600
260.846733	0.285000
252.521950	0.760400
257.189483	0.479100
254.112567	0.454600
250.660583	0.640800
248.998750	0.727100
242.552467	1.084000
237.718217	1.228900
242.671233	0.897000
243.620633	0.817200
242.882083	0.837600
238.673617	0.980200
234.806600	1.145000
238.885050	0.904400
234.638700	1.149200
246.558333	0.432300
239.861300	0.831800
239.097683	0.872100
242.959683	0.643500
239.951500	0.797000
231.869400	1.286000
241.972233	0.640800
230.712383	1.000800
223.203417	1.441000
235.245567	0.691300
235.051517	0.672100
230.995000	0.765800
233.237667	0.596200
233.845600	0.535700
234.033233	0.532500
221.792100	1.095200
228.485850	0.668900
232.419250	0.401300
232.473433	0.398400
227.214717	0.551500
220.806867	0.901900
219.977100	0.935900
216.268483	1.164600
217.005800	1.002800
220.589033	0.766200
224.135733	0.541500
227.742600	0.309800
224.067933	0.515100
226.149517	0.355000
222.557600	0.548000
215.160733	0.986100
215.561367	0.850300
224.873750	0.105200
216.395650	0.596900
209.271933	1.040400
214.507767	0.691300
210.175483	0.806700
213.604550	0.596000
214.563983	0.541800
211.934917	0.692200
204.529917	1.131400
208.342717	0.885400
203.655567	0.989500
210.434633	0.574500
211.730700	0.451400
212.204717	0.416500
214.896467	0.108100
209.806100	0.395000
204.568533	0.662700
203.369617	0.722800
201.976233	0.735600
196.222883	0.980100
197.211983	0.912900
203.074067	0.549700
203.486567	0.529900
204.340050	0.457100
199.904933	0.689700
195.195867	0.961600
190.880833	1.152000
190.530517	0.996400
192.581317	0.876100
197.044650	0.575900
189.463700	1.004300
194.338433	0.578700
191.992017	0.691300
194.138500	0.545600
187.988150	0.919100
192.537200	0.637700
189.751717	0.792700
185.828867	0.987100
183.940350	1.107200
190.239567	0.733900
186.365467	0.970000
188.415167	0.748000
187.052000	0.803600
198.598750	0.069800
189.416483	0.570000
189.891067	0.512200
186.076000	0.701300
181.227567	0.905200
181.945033	0.769500
180.353333	0.828600
178.788483	0.892800
182.614650	0.671000
183.306683	0.601500
187.980250	0.311300
184.032367	0.522400
184.273150	0.480800
180.217483	0.710700
178.180333	0.796200
185.624700	0.274100
179.728400	0.622700
176.569667	0.788200
169.931000	1.132700
174.188400	0.573800
168.450683	0.918900
167.935067	0.924400
171.965300	0.659000
171.150583	0.678900
165.882117	0.952000
170.316817	0.672100
171.470717	0.575200
170.154717	0.621400
180.511950	0.008300
160.572900	0.953600
172.358917	0.230500
166.891333	0.493500
165.877683	0.545700
162.479150	0.617900
164.224083	0.477600
156.456950	0.926000
159.155300	0.759200
158.960483	0.742200
164.354417	0.421300
153.155100	1.004300
152.358550	0.925400
162.123433	0.314400
161.556933	0.330600
155.982950	0.643400
156.570667	0.601300
