#Y dist(nm)	Y force(pN)
3386.416183	20.007900
3393.911050	19.755500
3392.670983	19.855800
3400.239750	19.421900
3399.173550	19.513700
3397.251600	19.645100
3406.625750	19.081100
3400.802967	19.451200
3409.751333	18.958500
3405.022483	19.533300
3407.285667	19.459300
3409.971933	19.287000
3409.895167	19.298500
3407.375033	19.466100
3406.460817	19.521700
3406.975950	19.499900
3402.247300	19.791200
3407.584550	19.616600
3406.085967	19.758400
3410.575733	19.535700
3405.520217	19.874500
3402.086100	20.125400
3410.860233	19.623900
3408.665250	19.762100
3407.949333	19.833900
3408.025583	19.851000
3402.602333	20.204400
3408.045350	20.082500
3413.206700	19.977800
3423.288433	19.417500
3417.876067	19.721500
3413.568717	20.000800
3410.064667	20.244700
3418.716400	19.752500
3419.981633	19.686000
3429.797200	19.123100
3426.049767	19.636300
3424.156867	19.802800
3426.443900	19.686800
3419.455067	20.115100
3420.801433	20.065200
3421.825683	20.015400
3428.261633	19.622100
3421.327317	20.057500
3435.253133	19.503600
3430.573400	19.848200
3422.438567	20.375800
3436.674217	19.507600
3436.756450	19.489400
3434.899633	19.629600
3437.608200	19.734200
3436.908350	19.777100
3442.515800	19.469300
3437.759700	19.759700
3436.158833	19.995900
3436.595050	20.051300
3436.376250	20.077700
3436.379300	20.108900
3436.009550	20.129300
3437.653317	20.051200
3444.973483	19.639800
3440.832283	19.896900
3441.508600	19.869500
3439.752700	19.988000
3439.246767	20.043100
3445.992683	19.660200
3446.289667	19.643500
3447.544267	19.582900
3448.456400	19.535600
3449.728200	19.471100
3441.943300	19.937300
3439.158167	20.631100
3454.517233	19.812000
3450.134183	20.145600
3457.416483	19.703400
3454.171683	19.901100
3461.947733	19.446300
3461.104533	19.769100
3461.303000	19.742900
3460.929983	19.791000
3461.595733	19.761000
3460.080467	19.961500
3460.427550	20.010200
3461.075700	20.048900
3457.068300	20.295200
3468.120383	19.679700
3466.987283	19.756200
3463.246850	20.016200
3467.184783	19.850700
3468.619533	19.769400
3461.409767	20.234200
3470.496267	19.729900
3473.430167	19.716700
3468.958000	20.058500
3469.655017	20.102200
3474.244850	19.801700
3466.151217	20.280400
3471.490383	19.971900
3475.053600	19.917200
3471.619117	20.181700
3471.638583	20.261700
3475.602533	20.051700
3472.782167	20.235400
3479.981050	19.812200
3482.572850	19.823300
3485.720500	19.640900
3479.182433	20.022300
3474.201217	20.301100
3483.727850	19.874300
3481.077183	20.101500
3488.891733	19.667700
3485.035383	19.921500
3483.852967	19.997500
3488.821700	19.737200
3490.977933	19.623900
3480.847483	20.422200
3495.721783	19.564200
3495.928483	19.563600
3496.436033	19.549200
3495.769967	19.765600
3492.935100	19.966700
3498.478817	19.693600
3490.110417	20.209900
3499.298533	19.689900
3497.881467	19.791400
3496.537417	19.969600
3499.510267	19.825900
3502.060183	19.791000
3503.505967	19.695700
3500.933650	19.850600
3494.926667	20.223700
3495.165750	20.263400
3503.271117	19.812700
3492.605500	20.524400
3507.153700	19.661000
3497.925967	20.232700
3502.096800	19.990100
3505.400850	19.884500
3506.907217	19.899100
3500.120333	20.360100
3506.128467	20.015200
3507.309083	20.007600
3514.613150	19.715300
3519.600167	19.438600
3518.785183	19.548300
3513.593383	19.881000
3515.552917	19.771900
3513.246050	19.900100
3503.972267	20.345500
3505.781967	20.237200
3502.492900	20.465000
3504.084050	20.399000
3506.618400	20.263700
3507.244467	20.259700
3508.088600	20.160800
3508.619467	20.121700
3505.590617	20.273500
3501.928017	20.491600
3507.899650	20.148200
3512.844083	19.851300
3509.500450	19.835600
3506.888817	19.972000
3506.260950	20.011700
3502.335933	20.240400
3502.588567	20.213200
3497.366167	20.497600
3505.623283	19.992300
3506.164833	19.953600
3503.099667	20.152000
3506.095417	19.965100
3513.540950	19.528100
3508.103817	19.843300
3513.424883	19.517400
3514.012217	19.462600
3509.408217	19.627300
3510.415117	19.287100
3508.994117	19.352200
3504.158033	19.645500
3505.985667	19.498300
3491.965033	20.207400
3495.554950	19.990700
3496.523450	19.945700
3497.509050	19.895000
3493.642633	20.068200
3503.775250	19.458800
3497.926983	19.789500
3496.943083	19.850400
3494.153217	19.997800
3493.765583	20.023800
3500.847367	19.615300
3498.618933	19.745100
3501.074267	19.612900
3496.742850	19.879700
3498.489833	19.698300
3497.577117	19.716100
3497.644133	19.681500
3497.580167	19.687600
3490.974667	20.078500
3498.001717	19.654300
3489.616067	20.153800
3496.923283	19.719000
3493.744917	19.803100
3485.767533	19.925100
3483.136133	20.079600
3488.182467	19.788400
3492.631467	19.479700
3490.320800	19.510400
3485.827617	19.774900
3484.455350	19.867700
3489.007200	19.605500
3490.145383	19.448700
3490.678367	19.408300
3488.197933	19.536900
3473.297183	20.417400
3480.248517	20.002900
3486.107583	19.644000
3487.912867	19.560700
3479.314183	20.076300
3500.387133	18.794400
3490.698700	19.347500
3482.498367	19.541200
3483.249200	19.397900
3483.639550	19.337300
3483.938483	19.332600
3472.106483	20.032800
3477.317933	19.733100
3486.546017	19.114600
3473.944817	19.704100
3474.978467	19.671700
3478.542533	19.460700
3475.981283	19.632300
3480.525617	19.344400
3471.166133	19.884000
3470.249100	19.861400
3477.406450	19.445000
3479.542233	19.302600
3475.572033	19.533600
3468.278267	19.831000
3472.743567	19.519300
3465.894967	19.930000
3471.799417	19.576000
3469.622000	19.725800
3474.672050	19.424000
3456.301683	20.318100
3465.778267	19.743100
3466.729000	19.691300
3473.363083	19.287600
3465.353683	19.703400
3464.386817	19.694200
3476.879983	18.928200
3472.748850	19.206200
3472.113100	19.226300
3473.588100	19.143200
3470.268650	19.296800
3465.760250	19.513700
3465.809883	19.490100
3463.793733	19.611000
3461.236933	19.732200
3458.885150	19.760300
3457.606150	19.829900
3459.964533	19.688700
3465.733717	19.349200
3462.221000	19.549400
3464.230400	19.424000
3456.864850	19.694300
3455.871833	19.703100
3464.213183	19.200000
3458.687400	19.537700
3458.094417	19.575100
3456.438517	19.674700
3453.988100	19.839800
3454.437033	19.801200
3460.848267	19.409800
3463.488900	19.246700
3459.598867	19.232800
3455.394833	19.359600
3460.840167	19.017400
3453.698883	19.459200
3445.410483	19.949400
3448.189300	19.770500
3452.767533	19.351500
3447.754550	19.468400
3450.599350	19.296800
3450.763483	19.292700
3454.779817	19.023100
3449.606667	19.268500
3456.897233	18.832500
3451.680650	19.145000
3447.836317	19.349800
3447.108850	19.385000
3439.878267	19.775500
3441.037267	19.500400
3438.268817	19.643500
3437.791433	19.675500
3445.227750	19.211000
3441.687617	19.421200
3442.707533	19.364100
3434.199467	19.868200
3444.402317	19.258600
3438.411417	19.344400
3434.384733	19.504200
3433.542700	19.549400
3435.555917	19.421500
3424.797500	20.076800
3433.271517	19.583800
3431.780783	19.674000
3433.538933	19.563900
3437.646650	19.149200
3429.656733	19.459800
3424.464267	19.776400
3423.770783	19.805400
3430.592267	19.352200
3434.547817	18.997600
3431.572600	19.166600
3424.459617	19.595800
3430.812983	19.231500
3432.861367	19.149100
3418.602300	20.027000
3430.102350	19.155800
3426.992967	19.328800
3434.384150	18.881000
3418.195650	19.845200
3424.331250	19.510400
3431.296017	19.056100
3423.993733	19.471200
3426.191400	19.346600
3424.082167	19.367200
3424.870467	19.288900
3426.104150	19.212500
3424.297733	19.266600
3425.419500	19.187300
3422.283483	19.359600
3427.198300	19.074200
3432.059150	18.774500
3429.549250	18.881000
3428.706083	18.928800
3429.815467	18.850300
3426.266767	19.052800
3423.794633	18.944700
3419.026083	19.034100
3421.277217	18.894700
3421.710633	18.879600
3414.374100	19.297100
3423.355083	18.761700
3424.524850	18.670400
3418.115600	18.860000
3414.614617	19.064200
3411.325283	19.274400
3414.046100	19.140200
3415.009717	19.088200
3420.002850	18.781700
3420.861733	18.719400
3417.613217	18.922900
3421.167283	18.398400
3414.410817	18.778600
3411.305167	18.961000
3412.843033	18.883200
3415.872717	18.656800
3403.631000	19.372700
3412.118450	18.857000
3415.953433	18.628500
3411.577317	18.876100
3408.487933	19.059300
3415.765600	18.433400
3412.240933	18.615600
3403.993483	19.116000
3409.899200	18.775400
3392.555650	19.835600
3403.699050	19.145000
3399.003483	19.437000
3401.197933	19.323300
3407.034767	18.856300
3401.229933	18.972300
3406.361867	18.658600
3399.270900	19.082900
3409.008550	18.498500
3401.981167	18.916000
3397.856850	19.185200
3402.263400	18.912500
3403.411667	18.824200
3399.219167	18.964300
3399.602883	18.927000
3404.554433	18.612300
3398.677817	18.976300
3401.054350	18.818000
3397.818000	18.980300
3400.115917	18.814900
3404.594817	18.549100
3397.187000	18.637100
3397.236533	18.624300
3399.069200	18.498800
3396.003900	18.668900
3392.243333	18.785100
3383.633900	19.227200
3390.699383	18.797100
3392.839933	18.688500
3391.315317	18.772900
3392.873500	18.672800
3392.297400	18.657200
3388.047800	18.717800
3379.734717	19.223200
3380.414033	19.177500
3394.750983	18.308100
3386.249100	18.805100
3389.062900	18.640400
3388.711983	18.674400
3382.200683	18.994800
3379.529833	18.927900
3374.780567	19.187800
3378.220117	18.916000
3380.879200	18.728900
3376.721117	18.971500
3375.869883	19.020600
3371.302633	19.152000
3371.524567	19.095100
3380.133200	18.503300
3372.566450	18.960800
3379.792883	18.514500
3370.831083	19.048200
3363.990800	19.326800
3368.704400	19.053800
3361.092400	19.531400
3375.233533	18.674100
3373.449033	18.669600
3363.873967	19.180600
3368.309800	18.870500
3372.664833	18.606300
3367.051667	18.933400
3366.566400	18.953000
3366.633633	18.910200
3370.010467	18.656800
3368.399350	18.747200
3370.208100	18.621200
3376.990150	18.209600
3382.875900	17.839700
3380.672900	17.956700
3363.109283	18.840900
3369.346083	18.450000
3367.293533	18.567300
3366.076767	18.630700
3367.673733	18.398400
3367.165467	18.378100
3364.884617	18.438700
3365.412367	18.377500
3354.413367	19.085500
3366.859367	18.325000
3359.843683	18.712500
3363.600717	18.456100
3369.231700	18.101600
3363.203217	18.412000
3359.357133	18.652800
3364.171000	18.375500
3353.384433	18.971400
3358.512950	18.545900
3359.166050	18.480800
3358.544400	18.494600
3350.354817	18.996400
3350.367450	19.011500
3357.997533	18.482400
3354.720167	18.609400
3364.157867	18.031300
3353.052317	18.681700
3353.649233	18.627300
3358.208600	18.230000
3358.607617	18.190000
3356.690500	18.244100
3349.638533	18.646500
3348.831933	18.662400
3353.639400	18.375500
3343.765950	18.859100
3345.066317	18.712600
3338.334033	19.095600
3346.630033	18.602700
3356.077317	18.052300
3350.420033	18.405000
3347.061100	18.608900
3347.838600	18.557000
3356.210417	17.826700
3340.526817	18.738700
3343.523317	18.512200
3342.568983	18.538500
3340.996367	18.610000
3341.255017	18.552100
3349.206000	18.096200
3342.959183	18.461400
3343.880583	18.381000
3342.696533	18.307200
3341.704233	18.346800
3337.190383	18.653400
3339.711700	18.470300
3343.549083	18.111300
3341.126233	18.240300
3338.590350	18.384500
3346.731200	17.904500
3342.933767	18.090700
3339.810783	18.283800
3342.096833	18.051000
3332.758483	18.570000
3327.981250	18.760400
3338.771133	18.126300
3336.817933	18.207000
3335.359550	18.290300
3338.181017	18.011800
3336.645850	18.056000
3330.571667	18.388000
3335.389200	18.072200
3333.505200	18.169100
3330.804633	18.330600
3323.873033	18.695700
3323.198033	18.660000
3330.745100	18.221600
3324.446083	18.610500
3330.141550	18.230000
3325.264283	18.398400
3326.527717	18.324100
3323.861233	18.429000
3328.151500	18.170900
3330.863183	17.998500
3332.549867	17.861200
3323.353500	18.264200
3320.205783	18.463500
3325.354867	18.148000
3315.769383	18.730800
3322.702867	18.268000
3320.536400	18.379400
3336.263017	17.373400
3324.930267	18.031300
3314.182517	18.692200
3324.408433	18.082200
3313.277733	18.657600
3323.553483	17.963400
3327.793000	17.643200
3321.901283	17.974500
3320.583650	18.043400
3315.344200	18.337400
3307.348383	18.778500
3312.524983	18.373500
3312.460300	18.371000
3306.362917	18.681700
3304.214733	18.833100
3306.282967	18.735400
3316.670733	18.115200
3306.979767	18.623500
3316.055850	18.060500
3316.057500	18.037100
3308.831333	18.450900
3314.268567	18.062800
3309.453633	18.331800
3311.500917	18.198100
3316.941817	17.857300
3306.752050	18.255500
3310.827050	18.019400
3302.953667	18.456100
3302.890417	18.415300
3308.810117	18.010300
3310.302317	17.890900
3306.948033	18.083700
3308.174733	18.030000
3305.212667	18.031300
3306.326417	17.967700
3302.107983	18.178200
3302.702517	18.148000
3292.516400	18.698900
3296.743383	18.354000
3299.801083	18.142800
3299.123517	18.148900
3300.829400	18.051500
3297.962367	18.210400
3301.243067	17.989300
3300.528300	17.892500
3301.002217	17.839000
3296.177017	18.079900
3292.484317	18.294400
3299.071500	17.892500
3297.688483	17.957100
3290.510700	18.253700
3284.662750	18.575000
3288.929817	18.317200
3292.398033	18.121800
3287.721133	18.288300
3291.140500	18.027800
3279.096867	18.713200
3288.039517	18.158500
3290.762817	17.999800
3285.585450	18.308600
3288.467750	18.107600
3288.296983	18.004800
3286.082000	18.099500
3281.574933	18.337500
3279.334417	18.476800
3280.099150	18.435500
3286.177017	18.090700
3282.608483	18.229800
3289.680550	17.774900
3285.014033	18.044400
3285.693433	18.005100
3289.706050	17.621600
3287.817533	17.663400
3283.019533	17.889000
3283.218633	17.865600
3283.441383	17.872200
3283.319400	17.855600
3278.426700	18.158600
3276.503550	18.281300
3270.732483	18.543600
3287.649083	17.498400
3277.491583	18.066300
3276.714450	18.110900
3275.578967	18.061000
3274.643450	18.042800
3274.484717	18.014800
3276.235683	17.876400
3263.183767	18.656800
3271.886867	18.138100
3269.289200	18.245900
3270.244550	18.079700
3274.377900	17.820800
3270.675033	18.033900
3271.600033	17.943600
3276.755533	17.462400
3274.816850	17.535800
3268.619633	17.836200
3265.272833	18.021600
3261.352117	18.233800
3266.534300	17.907200
3260.301083	18.136200
3271.425617	17.410300
3265.963683	17.679900
3271.110217	17.372800
3261.549000	17.944100
3263.809717	17.811700
3260.334100	17.923400
3271.174650	17.261300
3252.767583	18.360000
3265.213617	17.598100
3262.361950	17.640500
3258.477933	17.782800
3259.482033	17.690400
3253.667883	17.992800
3255.287200	17.884400
3258.982583	17.662800
3262.721917	17.386600
3255.705267	17.682700
3252.760150	17.816300
3243.648017	18.352000
3248.971367	18.039400
3252.288533	17.833200
3255.978233	17.622900
3244.912667	18.127600
3246.599683	18.006300
3252.357917	17.664100
3246.326967	18.023200
3255.321667	17.406400
3255.717333	17.368500
3245.470567	17.961400
3247.781350	17.798600
3240.275917	18.020800
3256.030400	17.090300
3249.630467	17.418100
3239.664050	17.958500
3248.980233	17.406300
3254.204050	17.079200
3244.834800	17.622200
3247.118350	17.495600
3240.865500	17.832800
3243.277300	17.581700
3243.700017	17.543500
3238.276350	17.879600
3246.339183	17.359200
3245.469633	17.298300
3240.109800	17.601200
3232.942983	17.997000
3234.343133	17.933100
3231.033633	18.144600
3244.644050	17.339000
3236.943167	17.660200
3237.393500	17.626400
3230.746800	17.990000
3232.462100	17.882000
3240.015317	17.443900
3242.091483	17.319600
3240.375217	17.412400
3230.375733	18.012000
3235.355650	17.520800
3236.569217	17.431300
3237.044733	17.363400
3243.523000	16.950800
3239.161617	17.118700
3236.431417	17.289400
3228.525867	17.737600
3232.969717	17.498200
3233.498183	17.365200
3229.402817	17.530900
3221.296783	18.008400
3231.809550	17.339000
3234.624050	17.163200
3232.196183	17.306100
3226.560033	17.631900
3228.333600	17.462000
3227.438333	17.517900
3230.344000	17.339000
3222.685400	17.780300
3230.997667	17.139700
3222.095850	17.636000
3226.216567	17.342500
3216.270050	17.926400
3232.891217	16.920700
3226.465533	17.296200
3227.061000	17.125400
3225.107650	17.189600
3224.887000	17.155400
3229.776967	16.864600
3216.063533	17.669400
3213.649050	17.814500
3219.641083	17.340600
3213.229983	17.660400
3214.621883	17.527800
3216.517517	17.391400
3208.706917	17.843200
3210.847017	17.716000
3207.272400	17.882000
3206.197933	17.862000
3207.752483	17.738400
3213.336900	17.409200
3221.608517	16.897600
3216.336283	17.084400
3208.174583	17.551200
3209.155583	17.485800
3215.502733	17.093400
3215.529617	17.099800
3211.554267	17.316400
3208.735350	17.337500
3216.429850	16.841600
3210.621683	17.141400
3210.979083	17.097000
3211.984233	17.051400
3207.399283	17.340300
3207.523350	17.255000
3207.948450	17.217500
3205.602517	17.359900
3202.542150	17.552300
3204.277017	17.374600
3206.652917	17.087200
3207.311317	17.029900
3207.443600	17.028500
3199.698783	17.475300
3200.518133	17.418000
3198.659367	17.502400
3199.378000	17.318000
3194.069150	17.603600
3195.069883	17.498100
3193.025683	17.610900
3200.735183	17.158200
3205.508833	16.882200
3198.084967	17.139700
3196.636217	17.224900
3197.603617	17.178100
3195.146350	17.305100
3192.877650	17.278100
3189.092467	17.533600
3190.615100	17.480600
3194.933950	17.209100
3191.738633	17.275200
3195.203817	17.023600
3189.335700	17.341100
3192.077650	17.157800
3193.930783	17.041500
3189.468450	17.307500
3184.725867	17.551600
3189.421467	17.158300
3186.679817	17.311900
3179.774017	17.689600
3187.525133	17.249400
3177.548717	17.846200
3184.975150	17.382800
3187.655383	17.184900
3186.331167	17.256700
3187.161933	17.154000
3189.279700	17.005700
3182.251117	17.401900
3186.059400	17.184800
3183.788883	17.131800
3179.844517	17.326900
3173.032517	17.723200
3180.609433	17.283000
3172.870533	17.598600
3174.916817	17.434000
3182.662450	16.934000
3186.495600	16.720700
3178.858250	17.169500
3173.939400	17.453000
3179.172717	17.055700
3184.159067	16.751500
3181.523033	16.898400
3180.265667	16.966300
3181.038033	16.818000
3178.406233	16.856400
3182.460067	16.590400
3172.524000	17.124200
3171.640733	17.187300
3175.757083	16.892700
3172.567100	17.070800
3169.465483	17.241900
3173.305233	16.992000
3171.269200	16.950800
3170.707917	16.954900
3167.676483	17.146200
3167.401100	17.155700
3167.270033	17.051700
3164.625300	17.152100
3158.473083	17.473200
3162.321933	17.223600
3163.367283	17.163300
3160.568900	17.337500
3159.349467	17.316100
3160.198833	17.202600
3161.091467	17.114200
3170.649050	16.515800
3171.233350	16.484000
3163.801700	16.912400
3156.888317	17.350300
3156.655583	17.354400
3161.356883	16.877400
3154.162350	17.327900
3153.431000	17.365700
3154.580267	17.298700
3161.368383	16.875000
3159.400867	16.947100
3164.208900	16.640600
3161.726717	16.780600
3156.770333	17.011500
3156.630317	16.913500
3160.116300	16.703900
3148.450783	17.352900
3142.103467	17.726200
3146.197167	17.477200
3147.245533	17.424600
3158.874533	16.595700
3152.247050	16.960100
3152.730350	16.937300
3145.187583	17.392800
3159.858233	16.451700
3160.618167	16.360900
3154.945183	16.644000
3155.734067	16.555900
3150.140633	16.850100
3155.319383	16.548300
3143.944750	17.224400
3156.478967	16.471000
3132.972700	17.643200
3137.795283	17.334600
3144.085800	16.927400
3150.760833	16.509600
3144.994033	16.820100
3146.985350	16.654100
3145.707767	16.726300
3144.168083	16.824900
3143.905700	16.817600
3140.923733	16.855800
3139.081367	16.953100
3131.934833	17.300100
3131.552800	17.330600
3134.482717	17.154100
3142.964950	16.627100
3142.909100	16.464800
3128.594000	17.309900
3136.235933	16.835400
3132.629767	17.057500
3137.121183	16.650300
3129.220583	17.089200
3135.474767	16.662400
3123.782750	17.360600
3120.954600	17.582000
3122.699050	17.503100
3129.840433	17.076000
3134.532450	16.798100
3127.318800	17.003300
3124.761700	17.155400
3131.333650	16.758500
3127.206317	17.005900
3118.120800	17.458400
3124.228417	17.026000
3122.761517	17.088100
3115.025150	17.544800
3120.809117	17.182900
3125.007483	16.948200
3127.701417	16.754500
3125.296233	16.845900
3126.998317	16.730500
3127.726317	16.670500
3125.780150	16.749800
3115.043717	17.248600
3127.985667	16.439800
3119.692183	16.895400
3127.094933	16.455900
3113.027550	17.294000
3122.041867	16.768600
3119.627433	16.789200
3110.720450	17.273600
3116.122033	16.898400
3122.581767	16.517200
3124.452783	16.413900
3116.880467	16.836700
3118.877083	16.573200
3112.688750	16.916300
3111.991100	16.961300
3119.748050	16.484000
3119.247367	16.453000
3113.490250	16.748900
3118.091983	16.444500
3110.984083	16.828200
3112.489883	16.754400
3115.658800	16.576400
3108.426633	16.976700
3113.865000	16.513700
3105.778217	16.959700
3108.951300	16.705700
3104.813050	16.931300
3107.761183	16.717200
3100.835417	17.140600
3104.369800	16.789100
3104.004783	16.784700
3112.520483	16.275300
3108.492267	16.518400
3102.771683	16.848300
3112.120667	16.263100
3106.664683	16.421100
3101.654167	16.720000
3100.814233	16.755300
3094.876683	17.133600
3099.015533	16.746300
3098.978967	16.751500
3102.902933	16.552200
3099.568450	16.682000
3089.946500	17.195000
3103.996000	16.232900
3102.483767	16.294300
3111.300933	15.690300
3100.874867	16.308100
3096.161567	16.587700
3090.410783	16.919400
3098.572467	16.436200
3098.346117	16.418500
3096.178783	16.392000
3086.318933	16.956900
3091.255683	16.664700
3089.665217	16.733200
3085.366233	16.815600
3091.263467	16.455700
3090.985683	16.481100
3090.527400	16.496300
3097.679633	15.910800
3085.218733	16.653900
3091.435117	16.229500
3089.820700	16.321400
3079.842350	16.840700
3082.273317	16.680400
3090.539467	16.164100
3079.183367	16.836100
3073.983400	16.982300
3077.163067	16.804600
3078.232983	16.719300
3085.763283	16.248600
3083.498600	16.309400
3080.662533	16.409700
3081.508950	16.333700
3077.872567	16.505800
3078.248117	16.482100
3075.699833	16.645200
3082.498917	16.189600
3072.660167	16.642900
3073.375433	16.585200
3071.001500	16.678100
3069.776400	16.745900
3077.574100	16.271900
3076.257717	16.362700
3074.762933	16.329600
3065.289117	16.884700
3080.838333	15.952800
3078.384017	16.100500
3080.288267	15.872800
3073.919383	16.188600
3072.674050	16.221800
3067.330917	16.517500
3068.166300	16.490000
3070.705817	16.361500
3066.411083	16.579500
3066.202900	16.587800
3069.037133	16.416600
3064.726933	16.649700
3066.842600	16.446500
3069.950717	16.157500
3061.688317	16.616800
3067.598000	16.227800
3072.098583	15.939300
3064.987450	16.378700
3062.659750	16.466000
3060.883867	16.479400
3062.629633	16.351200
3062.510450	16.310900
3064.917900	16.144700
3062.088333	16.290000
3062.931033	16.231500
3059.301250	16.402700
3053.163450	16.735400
3051.398617	16.811500
3062.357350	16.151600
3064.019383	15.964800
3062.066350	16.049300
3058.521117	16.153600
3063.339367	15.859300
3056.394333	16.234500
3061.330433	15.931200
3060.298467	15.849400
3049.188883	16.495200
3046.599817	16.649800
3050.967433	16.389600
3055.909450	16.029200
3055.311900	15.945200
3054.321267	15.994300
3049.673333	16.225800
3049.017983	16.245000
3042.139850	16.621400
3046.787733	16.329300
3048.422050	16.235000
3050.355033	16.103400
3048.681700	16.056200
3047.486083	16.119000
3049.988200	15.967100
3049.343800	16.008200
3038.947617	16.502800
3040.741783	16.340400
3040.038750	16.306700
3051.359800	15.634700
3040.895533	16.237500
3035.109217	16.597900
3035.870217	16.455400
3038.076500	16.265000
3034.788600	16.363400
3040.279367	16.057900
3040.303250	16.044200
3048.005733	15.576000
3042.749567	15.822400
3037.416450	16.034000
3042.613517	15.696100
3037.334667	16.030900
3028.740217	16.538200
3037.081200	15.978500
3044.247100	15.538400
3038.068483	15.832200
3034.914417	16.020700
3031.417633	16.237500
3032.605150	16.158800
3035.695233	15.834000
3035.015750	15.824300
3021.249933	16.602600
3027.874733	16.183800
3018.262917	16.751500
3028.231200	16.181600
3023.908267	16.349200
3025.935733	16.165500
3031.358717	15.817900
3029.468083	15.922200
3032.553283	15.743700
3029.120767	15.927700
3030.558567	15.817900
3034.065500	15.543800
3031.957567	15.641200
3026.687000	15.953000
3025.061600	16.013300
3017.580717	16.306900
3020.531267	16.126300
3018.054467	16.285300
3026.183683	15.781200
3024.238950	15.716900
3025.551850	15.627500
3009.835817	16.533700
3014.255033	16.251900
3018.788183	15.912300
3018.541033	15.927300
3010.651483	16.386300
3018.133967	15.934000
3009.126300	16.313000
3012.439917	16.107700
3013.685000	16.009400
3013.035467	16.048000
3008.717683	16.237500
3010.956867	15.994600
3015.529200	15.702500
3006.792750	16.196900
3004.527217	16.317700
3006.303733	16.203900
3007.120750	16.130900
3007.598350	15.951800
3008.637600	15.861500
3012.804700	15.554600
3012.134883	15.575100
2998.894600	16.363400
2996.162483	16.511100
3003.604383	15.931800
3008.717083	15.610200
2998.876950	16.190300
2998.725533	16.215300
2996.263667	16.263700
2996.245683	16.206600
2998.740700	15.985700
2997.358000	16.090100
3011.606850	15.235700
2994.975067	16.239400
2995.537400	16.160900
2994.192717	16.111600
2995.061200	15.996200
2998.103250	15.811400
3001.906133	15.569400
3008.670700	15.143900
2993.417300	15.999500
2987.905100	16.205300
2996.306833	15.708600
2996.117267	15.718300
2993.433433	15.843300
2991.212650	15.874100
2990.565100	15.908300
2989.600383	15.901800
2994.493267	15.614200
2991.639267	15.775900
2990.899567	15.796900
2987.945067	15.838300
2986.309650	15.922100
2982.522333	16.087200
2984.594850	15.957800
2983.177167	16.057900
2985.547233	15.907500
2982.789733	15.903600
2989.875767	15.460000
2987.877150	15.550400
2982.558933	15.859200
2969.086433	16.600200
2975.916900	16.169000
2972.615317	16.314400
2972.024567	16.357600
2974.594633	16.208100
2978.685350	15.963500
2979.273867	15.868900
2975.621683	15.966000
2978.349367	15.789100
2974.892883	15.972000
2978.667167	15.712300
2979.372300	15.652700
2979.956600	15.599900
2983.652633	15.212400
2977.265000	15.547400
2975.321683	15.625200
2976.990733	15.536100
2979.267100	15.385400
2974.396617	15.644200
2983.144133	14.970000
2974.797650	15.448700
2973.182917	15.532600
2971.620017	15.589900
2964.876683	15.892800
2975.200617	15.221200
2966.728167	15.665800
2964.764750	15.776600
2965.630250	15.708200
2967.861700	15.567500
2973.892133	15.148500
2966.762717	15.418600
2968.057533	15.335400
2966.137600	15.435800
2960.964283	15.746400
2964.821150	15.369500
2956.995750	15.833600
2971.266733	14.936700
2978.643050	14.477600
2967.436200	15.138200
2960.737133	15.525000
2958.537200	15.560900
2957.216583	15.618600
2965.870983	15.040200
2953.239783	15.785700
2947.642767	16.130500
2957.060983	15.548400
2952.296150	15.803900
2950.153383	15.895500
2958.421633	15.324900
2954.837583	15.537600
2960.128800	15.199700
2955.160583	15.509100
2957.044167	15.230500
2946.247883	15.859200
2948.209400	15.733100
2956.440117	15.234400
2950.591317	15.542500
2944.071517	15.802900
2953.378033	15.234000
2947.758517	15.565300
2952.304317	15.292600
2947.132867	15.535300
2942.469817	15.793900
2949.036517	15.360700
2945.009367	15.593200
2943.464483	15.667200
2944.041767	15.658300
2944.392883	15.463200
2942.129850	15.570200
2949.806900	15.062600
2934.346417	15.985000
2935.432417	15.929800
2935.581517	15.902500
2933.284633	15.926100
2939.174333	15.498900
2949.581683	14.817900
2940.573267	15.338500
2931.053800	15.866900
2936.687467	15.566800
2939.872617	15.287500
2938.065317	15.329200
2939.900667	15.176500
2933.789650	15.496400
2925.335433	15.998700
2932.634367	15.557500
2929.978317	15.695500
2935.796250	15.213200
2932.047033	15.436200
2925.873917	15.784600
2933.155400	15.348500
2923.154083	15.770100
2923.967733	15.748500
2930.904950	15.331400
2920.854733	15.940800
2921.310367	15.798700
2915.747150	16.119500
2927.050933	15.378000
2921.835850	15.677000
2921.617233	15.620700
2928.653033	15.168900
2920.997183	15.608100
2917.755217	15.785800
2920.920400	15.452900
2921.718133	15.375900
2925.227300	15.125600
2925.989083	15.084300
2926.183300	14.945000
2917.201650	15.429800
2916.275683	15.451500
2918.655567	15.307000
2916.357633	15.454500
2915.894183	15.466500
2916.685150	15.393800
2920.862033	15.081000
2922.159850	14.993600
2927.688883	14.643000
2916.315117	15.298000
2918.685000	15.134300
2917.797083	15.174900
2916.450200	15.085700
2913.161433	15.266100
2916.949083	15.020700
2914.468683	15.150900
2917.051150	14.835800
2913.789350	14.969000
2918.044933	14.624700
2915.853117	14.753800
2906.565133	15.285900
2903.294967	15.482200
2901.936217	15.515200
2902.725300	15.465800
2903.733050	15.356300
2906.830600	15.134300
2905.845333	15.168900
2909.886283	14.928000
2903.386067	15.236800
2908.382150	14.821400
2910.474150	14.680400
2907.376233	14.850900
2899.463817	15.213700
2897.396100	15.270500
2895.060800	15.392300
2893.289883	15.495300
2893.132567	15.470200
2890.741833	15.558300
2891.755350	15.518900
2904.684800	14.709500
2898.047633	15.106500
2896.702450	15.103400
2894.382983	15.227700
2896.160233	15.095100
2894.018933	15.238500
2894.193050	15.073100
2889.548650	15.344600
2890.631033	15.296400
2891.961917	15.211600
2894.346283	14.973900
2891.958533	15.034500
2883.556633	15.466500
2891.772817	14.953900
2899.735050	14.485700
2887.375450	15.235700
2891.659567	14.902300
2895.592183	14.578800
2891.159300	14.821400
2887.579267	14.986900
2888.147767	14.955100
2883.716783	15.196500
2882.245750	15.256700
2883.223050	15.041600
2886.783017	14.822800
2888.992883	14.685000
2885.896083	14.872200
2881.755017	14.980300
2883.828767	14.810200
2886.244783	14.613300
2882.017417	14.841700
2873.079500	15.356300
2875.405417	15.236800
2869.831300	15.457100
2877.606500	14.935100
2879.568600	14.726900
2872.646417	15.165700
2869.246567	15.373600
2871.174833	15.250200
2869.723717	15.241000
2871.780983	15.065400
2863.477483	15.557400
2873.384817	14.922100
2867.420767	15.277000
2877.470117	14.650000
2871.088583	15.002700
2871.539833	14.841300
2865.073817	15.218500
2870.154083	14.915100
2864.054550	15.286700
2868.982167	14.840800
2865.990567	15.025000
2867.833033	14.918400
2868.399367	14.884300
2872.883850	14.535500
2872.139383	14.562600
2863.554450	15.021500
2864.017967	14.992000
2856.392133	15.373800
2859.159517	15.208300
2864.222383	14.898300
2863.098633	14.964300
2863.746833	14.802300
2858.443283	15.027900
2857.878550	15.035900
2862.197850	14.731100
2862.082017	14.730400
2856.628483	15.045600
2858.590900	14.889500
2847.488267	15.464500
2862.158700	14.566400
2859.684150	14.678300
2863.964600	14.421200
2854.061667	14.856100
2853.842383	14.828100
2848.718567	15.056800
2852.317150	14.838800
2852.450083	14.822700
2846.629400	15.166700
2849.503983	14.830500
2843.362083	15.210300
2839.809350	15.413300
2844.475800	15.126200
2856.263583	14.264700
2840.460700	15.189200
2836.168650	15.385700
2843.742900	14.935400
2846.880600	14.739200
2846.389200	14.768900
2842.917200	14.885000
2844.942483	14.695500
2843.232250	14.726900
2839.778633	14.928000
2830.229100	15.450800
2843.557600	14.680100
2844.094750	14.607500
2837.682100	14.849300
2834.737617	15.010900
2831.794233	15.163500
2837.237983	14.822100
2834.938700	14.963600
2838.199833	14.786100
2830.398350	15.121400
2835.530700	14.794700
2823.258150	15.537800
2826.864017	15.321100
2837.954717	14.558500
2834.798367	14.705200
2828.131283	15.003900
2831.356867	14.824900
2816.276200	15.742400
2830.751983	14.858400
2832.642650	14.652800
2827.409600	14.910200
2833.790117	14.489500
2832.747900	14.510600
2822.496367	15.114400
2828.476800	14.744000
2832.322483	14.481900
2830.467650	14.466200
2831.145617	14.416600
2830.482683	14.449800
2826.777750	14.660000
2832.035200	14.192600
2828.227533	14.400300
2817.134217	15.046000
2818.049500	14.972000
2825.461600	14.534000
2824.846000	14.565200
2814.863650	15.002000
2817.363667	14.855800
2814.859433	15.014400
2821.287383	14.614800
2819.711750	14.613500
2821.420833	14.452200
2820.595100	14.487800
2817.540417	14.672500
2803.808067	15.471700
2822.809717	14.343400
2820.997683	14.321100
2818.233367	14.373100
2813.248867	14.654500
2813.092033	14.614200
2816.107967	14.431300
2814.245133	14.533500
2811.537583	14.665800
2812.560383	14.490000
2799.533517	15.240100
2802.544350	15.034700
2808.748333	14.667900
2808.556117	14.690500
2815.293000	14.293100
2806.602283	14.647800
2808.841250	14.487200
2805.757300	14.678000
2805.410300	14.680100
2805.432217	14.523100
2802.296683	14.665800
2798.452000	14.840600
2795.339167	15.028900
2807.021000	14.340800
2803.377667	14.558500
2787.077567	15.486400
2804.988700	14.397200
2797.190617	14.848600
2792.888450	15.123500
2790.322667	15.226000
2794.183983	14.964000
2794.040583	14.957700
2796.463400	14.798000
2798.223117	14.661400
2804.900817	14.248300
2789.797833	15.133200
2792.914483	14.792400
2793.854450	14.704400
2794.987183	14.583300
2793.484850	14.658800
2798.473167	14.350300
2789.138950	14.897600
2793.850650	14.462600
2793.969867	14.428900
2796.534483	14.236500
2791.593267	14.518600
2778.167100	15.334100
2776.677267	15.435400
2784.998617	14.869000
2777.863783	15.231000
2777.589433	15.196800
2782.975183	14.870700
2780.465783	15.012300
2785.267817	14.717200
2792.577367	14.275900
2786.001317	14.671600
2788.118667	14.436100
2781.587550	14.697200
2784.942433	14.461200
2787.015867	14.287600
2784.621933	14.401800
2778.517700	14.737400
2775.916567	14.864800
2773.558117	14.994400
2778.783967	14.614000
2780.190567	14.417800
2777.567883	14.542200
2783.071467	14.144800
2771.099867	14.854600
2770.402483	14.866800
2763.782067	15.270700
2776.937233	14.364300
2775.690400	14.411600
2773.077317	14.550400
2772.193417	14.591200
2777.249517	14.161900
2773.054233	14.324400
2766.279067	14.692000
2769.967567	14.439100
2778.650233	13.935000
2769.659200	14.458400
2774.800400	14.150000
2772.891750	14.258600
2764.759750	14.613500
2766.553233	14.414700
2766.514817	14.378200
2767.255600	14.289500
2762.849883	14.522700
2758.178783	14.786400
2762.550617	14.539900
2765.766950	14.368400
2768.021133	14.229000
2765.597733	14.218800
2767.394350	14.092700
2767.416900	14.018900
2761.008733	14.406300
2761.218933	14.391300
2763.366117	14.259700
2757.461333	14.461800
2756.796467	14.466100
2773.157200	13.489100
2762.805883	14.062800
2756.723300	14.420300
2756.144033	14.479500
2764.304117	13.870300
2761.539067	13.979500
2752.307383	14.511900
2755.615600	14.316500
2755.969617	14.221000
2752.894600	14.334200
2755.412583	14.167500
2750.213333	14.421300
2748.219183	14.543400
2748.016633	14.561400
2753.421583	14.216400
2748.215350	14.408300
2746.140383	14.534400
2742.394517	14.681200
2744.373417	14.555200
2741.613833	14.713800
2740.839167	14.771500
2751.147667	13.982200
2746.985500	14.217800
2744.595100	14.351600
2746.409317	14.244400
2737.685450	14.606900
2743.492317	14.233300
2745.982817	14.021500
2745.704267	14.031700
2739.686567	14.384500
2736.892783	14.529900
2733.489783	14.621400
2737.653633	14.345400
2732.869867	14.569600
2731.980267	14.603500
2737.421483	14.302500
2736.242900	14.361800
2729.330767	14.569600
2731.588517	14.440000
2735.766667	14.187100
2736.709033	14.126400
2734.180500	14.266100
2735.389550	14.150600
2732.706867	14.286400
2736.430917	14.048800
2725.982500	14.667200
2729.404750	14.462900
2730.722533	14.349300
2729.982250	14.273300
2730.617750	14.196800
2735.382233	13.903500
2733.633350	14.008400
2729.372050	14.106200
2734.236533	13.778400
2734.030833	13.677900
2725.843250	14.156600
2725.554383	14.178000
2722.523400	14.327600
2725.418317	14.125000
2726.085067	14.041600
2715.343433	14.632500
2725.173317	14.040700
2715.627817	14.598400
2724.509550	14.063600
2719.158383	14.255700
2715.744617	14.386300
2717.981117	14.221300
2719.236867	14.114200
2720.292733	14.049300
2718.905183	14.122500
2717.256967	14.162200
2715.139733	14.140200
2718.651833	13.896600
2715.423600	14.051600
2714.700400	14.054000
2704.884917	14.590600
2711.188400	14.192000
2707.871233	14.355000
2709.988883	14.230200
2714.366933	13.948200
2712.899300	14.025500
2712.854317	13.856800
2711.489683	13.889700
2714.381383	13.731900
2712.884950	13.803800
2707.363950	14.115500
2705.834567	14.201200
2703.218433	14.186700
2711.492500	13.645400
2709.780333	13.722000
2706.839233	13.885800
2697.689300	14.434700
2708.783983	13.751400
2707.319417	13.756600
2705.544517	13.833400
2703.120300	13.961900
2698.806017	14.224000
2701.946133	14.013600
2702.458367	13.915000
2704.841867	13.738600
2699.638250	14.025500
2705.035833	13.688400
2706.758383	13.551000
2708.558233	13.416600
2700.291050	13.814300
2701.159567	13.742500
2698.279183	13.903800
2690.587767	14.368000
2683.969650	14.744000
2692.310233	14.252100
2689.511500	14.422700
2698.410083	13.893300
2700.562567	13.491400
2694.929500	13.742600
2691.220050	13.936700
2687.906800	14.135300
2701.742733	13.298700
2697.679533	13.528500
2693.901067	13.696600
2691.580150	13.769600
2687.531167	14.008000
2691.943467	13.744600
2695.271333	13.527600
2694.581017	13.547500
2686.510400	14.028500
2692.093450	13.701800
2690.047850	13.696700
2689.407600	13.506200
2687.754950	13.559600
2686.646833	13.587900
2683.827883	13.745700
2688.910600	13.417400
2695.678283	12.982800
2686.705000	13.503800
2674.813117	14.179900
2685.854667	13.315000
2682.420600	13.503800
2678.063617	13.745800
2672.142267	14.101600
2672.024983	14.024100
2668.702650	14.232200
2671.273600	14.067800
2671.823200	14.047700
2672.418750	13.886900
2666.780617	14.170300
2682.870000	13.190900
2675.304583	13.613700
2676.663233	13.521600
2678.466133	13.391400
2678.045683	13.373700
2671.463850	13.782800
2674.384217	13.597300
2667.300233	14.006400
2675.915950	13.358000
2673.731067	13.205200
2672.670133	13.212900
2658.484167	14.041900
2659.868983	13.962000
2667.531950	13.469900
2659.513817	13.938700
2659.103833	13.750200
2661.451583	13.594800
2663.224950	13.489700
2661.771833	13.581600
2663.889250	13.456400
2656.357333	13.876500
2660.595233	13.618200
2659.381333	13.680900
2657.490883	13.806300
2652.743550	14.100800
2656.872717	13.601500
2658.557017	13.405900
2662.582883	13.149300
2652.972300	13.715000
2653.833900	13.658600
2653.692817	13.648600
2655.176050	13.316000
2657.965117	13.108900
2651.131950	13.499000
2644.582117	13.869400
2642.476650	13.990700
2648.904000	13.464200
2646.031883	13.610400
2647.896600	13.492400
2646.111583	13.552800
2641.125583	13.725900
2644.686267	13.487500
2643.009667	13.604500
2645.062850	13.486700
2641.680600	13.639700
2637.591533	13.889400
2633.160567	14.155000
2636.373367	13.961200
2642.899767	13.574500
2647.060817	13.321300
2636.412283	13.950000
2641.341133	13.638300
2643.873217	13.462000
2649.391433	13.125900
2647.334517	12.954100
2637.962233	13.432500
2640.514367	13.282000
2635.137017	13.593400
2633.782000	13.676300
2638.163633	13.416300
2629.392200	13.739900
2626.369083	13.761900
2639.704833	12.957900
2635.592017	13.191700
2624.723317	13.823200
2635.104283	13.210500
2634.394950	13.219400
2625.088117	13.740100
2626.133917	13.672300
2629.361083	13.457700
2628.686067	13.451500
2625.955550	13.490900
2625.352017	13.508500
2631.205850	13.129700
2630.929383	13.149600
2621.696400	13.676600
2621.236117	13.691200
2630.395783	13.138200
2627.081450	13.326500
2625.024183	13.203900
2621.747583	13.291200
2616.182050	13.610300
2627.534967	12.929500
2609.915367	13.971700
2618.282983	13.464000
2618.415917	13.461700
2623.928500	13.143500
2627.263817	12.751000
2616.754233	13.220100
2615.244817	13.288300
2625.675283	12.655200
2615.448133	13.257600
2610.368867	13.549600
2612.635617	13.406200
2618.345483	13.046700
2615.737733	13.143600
2610.775900	13.133300
2603.025333	13.571700
2603.827533	13.543800
2605.559517	13.454800
2607.812450	13.202600
2610.597700	12.994400
2612.904517	12.867100
2613.546967	12.813400
2605.672250	13.267100
2607.728600	13.148600
2599.667433	13.437300
2602.075167	13.245400
2599.860567	13.367200
2598.094950	13.458500
2593.380417	13.758400
2603.967850	13.126400
2606.578300	12.992600
2597.942117	13.493200
2582.680050	14.281100
2591.979433	13.719300
2593.618633	13.605300
2591.267050	13.725800
2589.807117	13.759000
2591.340767	13.533400
2585.126667	13.919200
2589.527467	13.614400
2593.512350	13.381400
2592.810867	13.404100
2590.926283	13.464900
2589.763733	13.327500
2588.679467	13.377700
2588.660450	13.367300
2589.339467	13.315600
2585.147700	13.570400
2583.938683	13.632000
2583.211817	13.678600
2585.630050	13.534100
2587.736350	13.112900
2583.871383	13.267500
2585.860583	13.156500
2585.612200	13.146500
2584.685983	13.171800
2584.491333	13.152600
2591.586967	12.734500
2590.438683	12.765300
2576.301433	13.274100
2573.665383	13.407000
2578.777617	13.108000
2577.113750	13.203800
2576.687067	13.158700
2578.456867	13.025500
2572.027733	13.436700
2571.476617	13.451800
2567.370417	13.687600
2574.902817	13.244200
2580.133367	12.823900
2573.836150	13.071200
2578.663083	12.769500
2579.849767	12.683200
2568.679783	13.323900
2568.574633	13.324800
2567.300217	13.408000
2566.453683	13.449300
2559.136733	13.865700
2561.314650	13.511300
2565.733900	13.217000
2569.924483	12.952500
2566.290450	13.163900
2564.256117	13.309600
2568.590150	13.056200
2564.945817	13.251100
2566.682600	13.148900
2563.570750	13.003100
2564.676833	12.904200
2556.642867	13.336300
2563.539033	12.920700
2557.390017	13.151500
2555.567650	13.194800
2555.279700	13.144400
2549.558283	13.457700
2554.949567	13.156900
2555.627283	13.112100
2553.854900	13.195400
2555.092983	13.110900
2553.268617	13.147600
2550.295083	13.187100
2549.981133	13.202400
2541.433050	13.702400
2547.907133	13.315200
2556.689283	12.789600
2553.824167	12.928300
2552.810117	12.905200
2551.982883	12.942000
2550.347533	13.014600
2551.687933	12.908100
2551.645617	12.894700
2552.405250	12.862700
2548.390250	13.074800
2547.565033	13.119600
2551.480150	12.551300
2540.189617	13.219900
2544.874883	12.927300
2544.934583	12.920400
2545.387183	12.764400
2538.975050	13.087700
2536.861333	13.211100
2534.911950	13.312100
2531.381933	13.522200
2535.253383	13.283400
2531.303233	13.369200
2533.480767	13.140700
2542.972667	12.565300
2539.077183	12.792600
2536.927617	12.897700
2534.468850	13.041800
2536.840217	12.885100
2537.903167	12.823000
2538.803150	12.719900
2535.032800	12.855800
2540.086767	12.530500
2532.236550	12.974000
2532.626467	12.925300
2529.494133	13.101900
2535.102250	12.763100
2526.692000	13.246100
2533.507150	12.827300
2528.618167	12.982300
2528.121167	12.969100
2534.107983	12.521100
2533.888517	12.501100
2519.665567	13.340500
2531.154917	12.649900
2528.438850	12.654200
2530.390917	12.496600
2521.372967	12.968800
2526.327417	12.659200
2523.024450	12.848600
2522.585333	12.828300
2521.273900	12.739100
2522.510733	12.645000
2523.402033	12.583200
2519.852767	12.783700
2516.213933	12.956400
2517.624067	12.834100
2516.667483	12.869100
2505.645550	13.486700
2517.832983	12.747600
2509.591000	13.205900
2513.935483	12.949500
2516.168433	12.654000
2523.060217	12.186100
2515.037217	12.568600
2521.894683	12.142200
2513.886317	12.585700
2513.026183	12.622200
2511.735383	12.531000
2508.780967	12.680800
2517.364633	12.148500
2518.046233	12.086700
2509.109517	12.508300
2508.464500	12.551600
2504.259483	12.747000
2504.287067	12.717100
2503.818617	12.703900
2496.901133	13.077600
2501.270750	12.812000
2500.429350	12.872000
2501.755100	12.748400
2508.091250	12.224000
2496.188867	12.924400
2493.187850	13.112300
2489.964750	13.263200
2491.741717	13.051900
2503.482383	12.327900
2504.559483	12.192600
2498.448350	12.558500
2492.175383	12.902700
2496.212650	12.677900
2495.438567	12.571600
2503.078033	12.089400
2495.388883	12.452100
2491.040667	12.704500
2489.770533	12.781800
2496.056867	12.432700
2499.341817	12.083500
2490.530683	12.588000
2492.441317	12.468100
2487.692900	12.751700
2484.456650	12.870200
2488.043683	12.552000
2488.554167	12.474700
2485.548683	12.625500
2483.179650	12.749900
2489.278000	12.371000
2486.009217	12.573400
2468.987517	13.435600
2480.310167	12.766600
2489.641667	12.193000
2486.217850	12.394700
2484.692917	12.387100
2483.448467	12.410200
2485.126283	12.279300
2473.118450	13.018400
2481.933433	12.471600
2476.815200	12.788900
2479.524700	12.554900
2478.775083	12.567900
2479.579683	12.471600
2477.988767	12.520300
2484.727600	12.093200
2485.290050	12.044600
2473.160600	12.646700
2472.829600	12.596300
2472.767133	12.557100
2465.305683	12.972900
2471.470800	12.594500
2476.595467	12.268600
2477.214100	12.163400
2470.024267	12.467200
2470.981967	12.402700
2471.438717	12.370600
2469.394867	12.477700
2470.076767	12.260800
2470.375450	12.234500
2467.196017	12.395800
2475.296700	11.907200
2465.038217	12.341800
2459.802867	12.660400
2467.070867	12.179800
2466.857400	12.174200
2470.832517	11.870200
2463.438550	12.304400
2460.405883	12.498600
2465.261717	12.193900
2453.837900	12.718100
2460.922000	12.306800
2457.466000	12.524000
2455.999950	12.590900
2447.766617	13.033600
2455.970117	12.427000
2448.632983	12.822300
2458.341483	12.196800
2467.712883	11.623800
2458.027550	12.155000
2458.628000	12.082700
2451.637117	12.333400
2451.662550	12.309800
2446.695800	12.564800
2448.731500	12.428900
2456.303650	11.989700
2466.270217	11.377600
2449.926383	12.300300
2450.344950	12.260900
2464.964400	11.363600
2457.287567	11.792500
2450.325517	12.131500
2443.090417	12.546100
2442.288950	12.540800
2437.378017	12.815800
2446.439133	12.279300
2438.934917	12.730900
2449.282533	11.985300
2441.982617	12.323500
2442.441933	12.258300
2443.804950	12.148400
2435.876183	12.638700
2432.393400	12.845300
2435.140133	12.644700
2437.742867	12.352900
2442.470550	12.056900
2440.278617	12.180700
2439.944200	12.162500
2439.875317	12.030400
2441.472300	11.903000
2437.230750	12.115700
2433.737217	12.326200
2437.737300	12.087800
2445.472750	11.622800
2436.181433	12.015900
2436.823883	11.945400
2433.337767	12.071500
2437.804067	11.782300
2431.694917	12.150100
2429.510050	12.282800
2424.606833	12.432300
2433.955550	11.860400
2426.829217	12.256600
2430.926183	12.025200
2432.204183	11.821200
2430.866550	11.833400
2431.120733	11.789700
2434.106700	11.582300
2439.744300	11.197100
2432.209900	11.671700
2431.662883	11.656200
2420.990550	12.189500
2427.238117	11.785300
2427.661383	11.718300
2425.202667	11.857600
2424.162950	11.903900
2426.409933	11.740500
2416.305533	12.182700
2418.253800	12.067100
2428.427867	11.463700
2420.494917	11.929000
2423.186000	11.685500
2420.647000	11.804000
2413.638150	12.212000
2420.818883	11.759700
2419.330133	11.840100
2422.693800	11.630000
2411.611717	12.157600
2411.559700	12.128900
2409.904383	12.201900
2415.602850	11.826500
2417.815850	11.665100
2422.789400	11.345900
2403.925650	12.282800
2408.765500	11.984900
2405.647300	12.141200
2407.273617	12.073600
2405.557167	12.098500
2403.301583	12.145800
2406.017617	11.950600
2401.740450	12.141800
2400.650917	12.211600
2403.833033	12.001800
2408.984350	11.668100
2402.647000	11.969900
2397.398633	12.269700
2400.560367	12.011200
2400.780517	11.992600
2399.501450	12.028400
2403.177283	11.797200
2399.869900	11.848100
2388.703000	12.466400
2396.199383	11.994300
2396.575783	11.965800
2393.171067	12.102700
2395.270067	11.984500
2387.573800	12.272300
2395.244117	11.820700
2395.330717	11.793700
2395.358033	11.798100
2390.680867	12.010000
2391.814467	11.938600
2398.782283	11.485500
2391.070767	11.933800
2380.398983	12.521100
2388.338567	11.992300
2387.791317	12.032800
2383.676400	12.216800
2393.205300	11.639000
2387.277200	11.955200
2389.361117	11.848900
2383.304217	12.048700
2384.262883	11.952000
2383.194467	11.937700
2384.390300	11.852000
2380.301300	12.082400
2384.629650	11.817500
2386.164517	11.571100
2386.736200	11.492300
2389.356367	11.230300
2383.137833	11.581800
2379.073600	11.806100
2386.124850	11.357300
2375.796983	11.884200
2375.524333	11.907600
2377.233383	11.800200
2377.119667	11.797600
2380.408633	11.517000
2379.496817	11.521900
2369.281567	12.094000
2371.666283	11.920200
2373.306600	11.802200
2371.320050	11.893100
2380.302883	11.295900
2368.842183	11.861700
2360.421667	12.350200
2365.829767	12.049600
2371.081933	11.664600
2363.829550	11.979200
2362.724317	12.037300
2362.946083	11.946000
2362.901700	11.935100
2373.920217	11.268700
2366.878367	11.696800
2364.683517	11.682100
2367.483250	11.459300
2359.616950	11.837000
2370.375550	11.188700
2359.733083	11.814900
2363.691983	11.555700
2357.631583	11.855700
2349.108800	12.354500
2345.439250	12.545000
2353.573317	12.027700
2356.023750	11.894600
2352.819783	12.065100
2364.884333	11.254800
2362.603433	11.283600
2352.095617	11.866900
2347.948333	12.055500
2355.140350	11.617100
2356.066550	11.544200
2348.158333	12.001200
2349.806917	11.759200
2350.436300	11.704400
2352.542400	11.570300
2356.190583	11.334300
2358.502933	11.066700
2342.625733	11.970900
2347.084267	11.635900
2351.614600	11.346500
2340.710917	11.970400
2345.835000	11.666000
2356.301933	10.969800
2351.320067	11.197900
2343.791100	11.598800
2343.080617	11.616400
2347.023467	11.372800
2348.633233	11.274600
2340.151850	11.590400
2348.488117	11.096800
2337.657267	11.684800
2344.098317	11.294800
2340.946917	11.428300
2333.624700	11.762600
2334.588500	11.689700
2327.131150	12.080000
2332.904317	11.730100
2337.847367	11.437900
2327.696883	12.029100
2328.193300	11.861300
2327.970717	11.879800
2338.685383	11.192700
2331.109450	11.626100
2326.878933	11.876400
2334.418000	11.429300
2328.270333	11.612700
2325.914967	11.751100
2334.447583	11.227200
2333.348833	11.273100
2329.073100	11.382500
2330.402467	11.238700
2331.192100	11.146400
2333.009633	11.019300
2322.721533	11.597400
2320.006317	11.768800
2328.324417	11.189200
2325.909167	11.243200
2317.758517	11.688100
2313.062883	11.937900
2317.115683	11.688300
2317.533367	11.663200
2333.328183	10.705200
2318.143917	11.554900
2320.165200	11.434700
2325.197550	11.125400
2329.343667	10.844800
2317.281450	11.477300
2319.009983	11.351100
2321.834167	11.119600
2322.008133	11.092200
2309.867233	11.821200
2314.023583	11.561400
2313.439033	11.470200
2312.136500	11.507300
2312.067900	11.484800
2319.562183	11.003700
2308.901150	11.642900
2310.182017	11.553400
2301.363500	11.936600
2303.627750	11.801300
2310.619500	11.349200
2305.050317	11.682400
2308.750183	11.353200
2305.764500	11.395100
2302.198900	11.570900
2308.454300	11.151800
2302.025583	11.514600
2305.307950	11.305700
2304.996750	11.294600
2298.109617	11.608300
2293.356617	11.869900
2302.537583	11.266200
2302.057600	11.284700
2298.786067	11.460400
2304.730833	11.132400
2305.901700	10.917200
2300.648017	11.177800
2293.974350	11.511800
2301.503767	11.062900
2300.418067	11.118400
2299.575867	11.175700
2300.409600	10.943600
2286.713567	11.755900
2281.036400	12.109700
2292.539767	11.429200
2300.449450	10.822400
2294.390733	11.132400
2290.228650	11.360600
2289.011150	11.399900
2290.461750	11.301200
2284.800033	11.636100
2279.362983	11.907000
2286.805350	11.357900
2291.164183	11.101800
2287.557267	11.272000
2284.375400	11.463200
2283.306267	11.530600
2283.139750	11.520500
2275.144783	11.848500
2273.602733	11.952300
2281.069850	11.493200
2292.880600	10.789700
2280.309433	11.395200
2277.930433	11.474400
2284.427950	11.030300
2285.150933	10.989600
2284.354533	11.020500
2287.040133	10.853100
2280.309233	11.153700
2273.995233	11.435400
2275.826450	11.275700
2273.761167	11.380600
2266.949183	11.789100
2274.007200	11.361800
2271.483733	11.436300
2264.550950	11.774600
2265.791667	11.684800
2266.151250	11.646800
2271.182000	11.278400
2273.597717	11.000800
2270.719883	11.148900
2260.971317	11.698300
2267.803800	11.286200
2270.729900	11.123600
2265.765233	11.404200
2266.257833	11.251500
2264.255883	11.337900
2267.886300	11.053400
2252.144050	12.012500
2266.042033	11.167800
2258.042217	11.646400
2260.787117	11.326900
2261.351100	11.270900
2253.478167	11.716300
2256.082900	11.593100
2263.160700	11.062400
2259.088250	11.234300
2251.598867	11.646400
2257.491817	11.289100
2253.658133	11.496000
2252.942017	11.540200
2254.164033	11.364000
2256.610533	11.136900
2255.846500	11.144600
2241.547133	11.962800
2243.608067	11.835700
2245.521567	11.716300
2256.494583	11.030700
2249.179583	11.334900
2253.673550	11.046500
2249.260800	11.307200
2247.335383	11.373600
2242.836250	11.500700
2240.375467	11.641000
2243.904600	11.402900
2247.069400	11.212100
2244.875683	11.322900
2241.123483	11.542200
2240.253050	11.476700
2248.607033	10.911900
2239.296550	11.399000
2243.274133	11.162100
2248.899167	10.782700
2241.315050	11.240000
2244.794450	10.952600
2240.332017	11.131300
2241.080000	11.073200
2238.683767	11.178700
2245.080700	10.784300
2238.073550	11.197400
2241.903683	10.893600
2236.439550	11.117600
2241.247183	10.813500
2240.482650	10.843700
2236.451717	11.061400
2237.436183	10.865400
2227.619733	11.425500
2232.527883	11.085600
2232.555883	11.061000
2232.144400	11.074100
2239.044917	10.674100
2239.462083	10.568700
2234.987233	10.827000
2241.001767	10.442800
2236.524350	10.687700
2224.867283	11.233800
2229.207667	10.932700
2236.937917	10.425400
2226.117083	11.031000
2231.952933	10.671300
2228.740950	10.840400
2232.571800	10.550600
2223.854183	10.952400
2226.898767	10.742500
2221.100000	11.034500
2213.259200	11.518400
2229.972800	10.490900
2228.505883	10.575300
2224.504267	10.639300
2216.741017	11.040100
2210.799567	11.305900
2216.475900	10.983500
2206.921317	11.545000
2216.868017	10.951900
2211.370867	11.092900
2212.916250	10.989500
2212.564517	11.000500
2211.331550	11.091800
2217.320750	10.596500
2209.182667	11.067100
2214.819583	10.716300
2212.033667	10.891300
2206.126217	11.086900
2200.408867	11.433700
2205.018250	11.129600
2203.168283	11.224500
2206.003050	11.018000
2203.514133	11.128200
2207.824283	10.877100
2205.604667	11.009200
2212.770350	10.560200
2208.381067	10.755100
2214.381450	10.369100
2209.852833	10.615800
2198.576050	11.277500
2210.260717	10.534000
2203.537267	10.878400
2205.713217	10.690900
2204.627917	10.735900
2205.884583	10.625400
2205.087683	10.680900
2209.041883	10.271700
2210.068517	10.174300
2200.756850	10.652600
2195.516867	10.947100
2194.807100	10.983800
2191.891383	11.142000
2208.930033	10.074600
2201.966567	10.439200
2200.204267	10.495000
2196.437800	10.715600
2192.973567	10.878100
2191.898267	10.802500
2182.587033	11.341500
2189.838683	10.869600
2191.259000	10.770500
2188.885400	10.895600
2185.259200	11.117600
2183.732900	11.056400
2193.413533	10.473300
2188.199500	10.796300
2179.285567	11.294500
2188.101933	10.654500
2194.549683	10.232700
2189.784250	10.447700
2188.458500	10.519100
2182.823533	10.796700
2185.091483	10.675800
2179.930850	10.956800
2184.213650	10.709300
2182.353817	10.660300
2184.920317	10.476400
2180.970283	10.706700
2175.293500	11.024600
2179.897867	10.708600
2182.587850	10.493600
2181.052433	10.560000
2180.425433	10.551300
2177.136033	10.746000
2177.336483	10.721100
2173.198933	10.896600
2175.507050	10.635800
2175.970133	10.584300
2171.374033	10.825500
2171.308617	10.839700
2173.141633	10.724700
2164.427367	11.230600
2175.419350	10.411400
2172.907550	10.534400
2179.623283	10.108200
2177.912667	10.171900
2172.227933	10.359600
2163.425817	10.854700
2166.446733	10.604400
2173.077517	10.216900
2162.741883	10.820100
2166.623783	10.573500
2162.324817	10.769800
2171.921917	10.172200
2168.385333	10.319100
2163.015600	10.650500
2155.129633	11.110500
2159.945733	10.829400
2168.192600	10.179500
2153.461733	10.993200
2165.366783	10.273200
2167.049933	10.140300
2156.760333	10.662900
2158.634983	10.456200
2155.221383	10.611900
2155.355850	10.536200
2164.741383	9.969000
2152.024633	10.706700
2151.733100	10.711400
2156.050417	10.292500
2147.729517	10.787200
2151.344617	10.553800
2148.415583	10.702800
2147.033283	10.661100
2151.877933	10.353900
2152.174300	10.313300
2150.797400	10.390100
2146.568283	10.634400
2150.438350	10.402400
2152.722233	10.115100
2157.208800	9.792500
2149.437417	10.174300
2142.898900	10.556000
2134.701333	11.054100
2145.006250	10.416800
2132.159017	11.107900
2138.620233	10.716900
2149.629450	10.037900
2141.529600	10.500200
2140.715350	10.501400
2136.674233	10.581900
2136.717500	10.572200
2127.827600	11.069600
2136.250050	10.554200
2137.156517	10.489000
2134.885700	10.607000
2134.269900	10.544300
2131.165050	10.700300
2139.476467	10.193500
2135.703950	10.373600
2138.006433	10.083000
2135.338817	10.228000
2132.462533	10.378800
2131.546783	10.432800
2127.762983	10.649400
2131.855983	10.408200
2123.991600	10.717100
2129.649417	10.378300
2125.518117	10.620100
2122.527367	10.782100
2113.648833	11.153400
2124.467917	10.511200
2126.920900	10.334300
2124.244933	10.451700
2125.399200	10.372700
2127.687283	10.194000
2126.467450	10.244000
2130.344450	10.003700
2127.823550	10.124300
2116.814417	10.748800
2116.408633	10.776000
2122.019600	10.422800
2120.428317	10.490500
2117.211400	10.667300
2122.528317	10.332400
2121.895333	10.208100
2121.938717	10.174900
2113.827367	10.620100
2117.297717	10.421200
2112.652317	10.563100
2120.813850	10.015700
2117.677883	10.155900
2112.162517	10.501300
2115.935517	10.266100
2119.080033	10.045500
2110.083217	10.448500
2110.496050	10.373000
2111.483633	10.247700
2108.887833	10.402200
2105.986033	10.568400
2108.536650	10.418600
2108.443683	10.374600
2107.452350	10.308200
2102.588100	10.582700
2103.962600	10.489700
2104.459433	10.441800
2099.018100	10.742000
2100.149050	10.652300
2105.056200	10.333400
2105.504333	10.279200
2102.852633	10.451700
2094.309367	10.944100
2093.434850	10.838000
2098.568633	10.513500
2103.916817	10.140700
2101.389483	10.297500
2095.714717	10.475200
2092.598167	10.620100
2087.909917	10.826800
2095.608833	10.389600
2098.486200	10.214900
2107.961333	9.648000
2096.913883	10.130400
2095.121800	10.179800
2102.297833	9.668700
2098.009567	9.891100
2091.968500	10.240700
2087.838983	10.464300
2090.749483	10.220400
2085.567683	10.404000
2091.937233	9.995100
2089.403750	10.104800
2082.585767	10.499500
2083.441383	10.452300
2087.930717	10.165900
2081.195733	10.424400
2084.936400	10.211000
2084.550883	10.211400
2084.910750	10.169000
2081.435483	10.247100
2077.205883	10.452300
2081.193033	10.173000
2079.089583	10.292700
2076.737483	10.430700
2075.775450	10.500200
2080.801100	10.061000
2081.435617	9.979600
2082.937367	9.828100
2081.115750	9.915500
2077.705367	10.111300
2079.953417	9.981100
2079.598450	9.866000
2076.133083	10.019400
2072.541933	10.200000
2069.976850	10.332200
2073.007583	10.145100
2075.919000	9.955100
2075.665233	9.922500
2075.879400	9.774200
2078.960583	9.592800
2071.249100	10.040900
2069.870150	10.100900
2063.200183	10.353900
2071.226417	9.849100
2070.461067	9.849100
2058.375917	10.542100
2060.135400	10.433600
2068.802517	9.923200
2065.271817	9.944800
2060.827167	10.195300
2052.153800	10.691300
2064.609333	9.968700
2065.360783	9.815700
2063.963967	9.828700
2065.328333	9.731100
2060.109950	10.038500
2050.567900	10.567700
2052.923833	10.441800
2053.468267	10.357900
2049.067700	10.504700
2053.160833	10.248600
2051.164533	10.332300
2061.452000	9.703700
2064.713133	9.490200
2061.393717	9.643000
2055.375800	9.882500
2059.687650	9.581600
2055.114183	9.801000
2046.355167	10.312000
2052.331767	9.952000
2058.196550	9.601100
2052.261617	9.841600
2043.005183	10.387200
2050.706800	9.929900
2047.303767	10.120300
2039.669850	10.504700
2043.999267	10.237900
2047.944050	9.988100
2045.328417	10.121800
2045.696500	10.048400
2050.280133	9.732600
2047.745517	9.839500
2046.454767	9.891100
2047.436417	9.788800
2046.127217	9.828100
2047.363950	9.745700
2049.596467	9.601000
2041.315700	10.005800
2041.850650	9.856400
2042.587433	9.792600
2035.622133	10.158600
2039.207950	9.903200
2035.220200	10.020200
2028.723450	10.367600
2032.952300	10.027400
2032.209267	10.070200
2035.520167	9.879100
2038.650333	9.650400
2030.167367	10.107400
2034.473683	9.837900
2029.107750	10.079900
2031.224883	9.947700
2032.502183	9.830100
2033.695483	9.744900
2029.927117	9.796600
2030.965133	9.726000
2026.299750	9.978500
2027.388133	9.921900
2030.255083	9.655800
2035.755450	9.245600
2031.890217	9.424300
2028.257317	9.598000
2030.593383	9.437700
2025.963600	9.682700
2027.336417	9.530500
2020.858383	9.802200
2021.500117	9.756700
2023.648833	9.578100
2022.393667	9.617500
2017.824317	9.911500
2016.842867	9.961900
2017.483367	9.767800
2013.498967	9.986200
2014.730517	9.931900
2015.705700	9.869300
2012.563867	9.909400
2007.919950	10.172300
2017.921050	9.539600
2021.690950	9.293900
2020.194867	9.367900
2017.106733	9.547800
2012.945883	9.607800
2006.615700	9.989000
2007.790083	9.943500
2019.036133	9.257700
2011.679983	9.627900
2010.933317	9.587500
2008.797417	9.675700
2007.922533	9.692400
2009.336000	9.566600
2014.335900	9.250400
2003.677967	9.864400
2003.571033	9.814500
2001.848433	9.912000
2002.735733	9.826200
2006.797017	9.552400
2006.195983	9.543900
2005.723217	9.586000
2001.987833	9.742200
2001.324983	9.749400
2004.921083	9.472800
1998.390217	9.845200
2004.058233	9.494100
2001.429233	9.624900
2002.284600	9.377000
2001.408383	9.427800
1992.157367	9.919900
1990.828133	10.014600
2001.375983	9.243300
1994.948650	9.570200
1992.609133	9.660300
1993.438467	9.592900
1978.692717	10.489000
1993.264983	9.586800
1990.085150	9.693200
1990.333317	9.591400
1991.900750	9.471500
1989.667217	9.542500
1991.402533	9.432300
1992.283167	9.380500
1986.829133	9.660300
1987.296083	9.521400
1986.376650	9.558500
1978.881600	9.978500
1988.167617	9.406600
1985.204367	9.583900
1987.879383	9.413400
1987.472850	9.256400
1976.537633	9.894300
1983.737150	9.473600
1983.990617	9.445600
1980.821000	9.489800
1984.726100	9.212900
1971.540083	9.933000
1985.879567	9.063700
1965.183983	10.307700
1970.945667	9.987400
1971.059233	9.841200
1972.790217	9.739300
1973.976033	9.681300
1971.932033	9.780300
1980.837217	9.185200
1974.901733	9.494400
1985.407583	8.812800
1972.853033	9.455700
1972.126050	9.501500
1972.139617	9.485200
1964.453867	9.929500
1970.379550	9.439400
1966.066550	9.674000
1965.099317	9.667300
1964.876783	9.675600
1969.752367	9.392800
1971.585250	9.265400
1969.926883	9.228600
1957.977517	9.898600
1968.493500	9.215900
1970.636083	9.024300
1968.524850	9.157400
1964.977083	9.343800
1966.003350	9.266900
1964.493150	9.353000
1972.232967	8.873500
1965.868017	9.240700
1958.783850	9.638300
1962.706517	9.342100
1963.290767	9.258400
1962.113017	9.217300
1959.878817	9.334300
1954.314167	9.646000
1960.104050	9.290300
1952.116317	9.633100
1960.444483	9.103500
1953.219683	9.466200
1950.293883	9.649800
1945.908000	9.896300
1956.628717	9.256000
1942.832983	9.927000
1958.689350	8.964200
1953.541950	9.238100
1955.095500	9.110300
1954.903717	8.984500
1942.923667	9.624700
1943.566467	9.530200
1941.405583	9.658200
1941.384083	9.649800
1940.472850	9.695000
1945.257867	9.331300
1947.562317	9.089200
1948.934583	8.976900
1951.422300	8.777000
1941.974250	9.322400
1949.735883	8.862300
1946.374367	9.045700
1947.294583	8.826300
1942.951517	9.061000
1949.179333	8.620800
1941.813833	9.048900
1945.525017	8.828800
1940.915250	9.087800
1933.319683	9.447000
1940.282783	9.021000
1934.857883	9.353100
1936.262267	9.271600
1925.783067	9.736300
1931.775133	9.367800
1940.550483	8.828100
1931.336733	9.356100
1925.139600	9.571100
1933.069267	9.050500
1930.253483	9.169500
1929.337717	9.198700
1927.277783	9.293100
1923.069067	9.520600
1922.212367	9.576400
1924.817183	9.430800
1918.680917	9.736000
1928.475717	9.037600
1927.755000	9.069800
1929.532083	8.942100
1932.887233	8.721000
1917.208683	9.525900
1911.119250	9.882800
1917.172533	9.500100
1923.511200	9.107600
1920.955733	9.254700
1922.450200	9.168500
1916.897683	9.426900
1917.135883	9.386700
1926.161383	8.838600
1923.182333	9.009900
1916.776267	9.380500
1915.458700	9.440600
1907.787300	9.752600
1913.435133	9.394800
1922.207000	8.860400
1923.067267	8.783800
1923.685433	8.641800
1910.353483	9.355500
1910.081583	9.303600
1909.303367	9.350500
1905.113850	9.560600
1906.598583	9.491100
1906.137683	9.460200
1908.707917	9.166000
1899.859083	9.667500
1908.051883	9.136500
1905.536350	9.262400
1903.192000	9.385100
1904.578350	9.268700
1900.554900	9.398000
1906.868333	8.995500
1907.787783	8.916300
1903.998950	9.121100
1898.327400	9.302000
1897.103583	9.334200
1906.018500	8.743700
1899.414750	9.117200
1903.196267	8.865700
1895.863233	9.322500
1902.691817	8.803600
1896.228317	9.116200
1891.053167	9.331600
1889.555250	9.447200
1900.291833	8.807400
1888.882467	9.488200
1890.836067	9.209200
1893.159917	9.056500
1887.601950	9.419000
1892.466967	9.074800
1896.864900	8.740400
1893.615633	8.794200
1886.574283	9.213600
1887.101033	9.172800
1884.486717	9.343000
1888.596517	9.076900
1889.909867	8.996800
1894.723933	8.542500
1884.071000	9.140600
1890.747350	8.708300
1889.767083	8.724000
1881.534100	9.197600
1882.594900	9.137900
1890.958100	8.472800
1887.245033	8.673000
1872.853917	9.533200
1879.562767	9.136600
1881.792950	8.812700
1881.448483	8.834700
1874.565350	9.235400
1879.497983	8.935200
1882.581317	8.558800
1883.377633	8.501700
1868.124917	9.398800
1874.044500	9.060500
1876.772467	8.881600
1874.003600	9.029600
1880.673900	8.606000
1879.670967	8.634100
1877.061833	8.741400
1875.170950	8.711300
1873.416083	8.806800
1870.762083	8.964900
1872.016717	8.863000
1866.460450	9.044600
1869.400933	8.851800
1866.663967	8.947000
1866.083450	8.973200
1861.425133	9.212700
1861.078667	9.239200
1860.803300	9.150200
1865.795517	8.791000
1867.281667	8.615500
1861.266167	8.966800
1868.503250	8.514200
1864.839400	8.758700
1861.516917	8.827600
1862.853200	8.697800
1861.953867	8.670700
1861.442267	8.704300
1858.069333	8.896800
1860.074167	8.767900
1864.280833	8.471400
1858.588917	8.695900
1855.354500	8.872100
1857.060267	8.772700
1860.709617	8.533000
1856.106017	8.645800
1862.469667	8.232100
1854.644983	8.659500
1846.748867	9.105100
1840.011733	9.518400
1845.214717	9.215200
1847.848967	8.897500
1853.078517	8.584300
1856.671100	8.364800
1842.804283	9.170700
1843.590417	9.014800
1844.373333	8.956800
1854.503183	8.300100
1846.945017	8.717800
1848.668300	8.627000
1846.513817	8.749300
1837.541150	9.214100
1846.832517	8.549500
1842.508450	8.789600
1836.419650	9.143900
1839.783200	8.931200
1833.046617	9.322300
1833.159817	9.264700
1835.013617	9.037900
1838.619833	8.815200
1832.230083	9.187500
1837.722367	8.845900
1832.398450	9.044600
1837.302783	8.714700
1834.403250	8.821100
1832.874167	8.911300
1829.979617	9.076300
1828.113583	9.181800
1828.329533	9.050100
1829.215033	8.957400
1830.567983	8.828100
1828.605400	8.941700
1833.541517	8.636500
1836.072033	8.478000
1829.889283	8.725800
1828.944550	8.722700
1820.474483	9.207300
1825.676917	8.893300
1834.749350	8.343800
1826.284650	8.822300
1825.329983	8.823900
1823.855133	8.815200
1823.219250	8.812100
1824.344483	8.709000
1830.287867	8.315500
1829.385933	8.214000
1827.158883	8.300100
1827.760867	8.194900
1819.116883	8.684700
1827.441067	8.180200
1823.945733	8.399100
1815.103450	8.855600
1816.486100	8.753600
1802.790167	9.551200
1809.010567	9.179500
1820.119033	8.510100
1823.539900	8.294000
1825.661983	8.034300
1819.593800	8.387300
1811.878533	8.828100
1810.435817	8.898700
1814.128283	8.526000
1818.900983	8.196300
1825.000050	7.724900
1811.403633	8.520900
1817.722167	8.102500
1811.575650	8.429000
1804.286050	8.804900
1795.390567	9.221500
1802.115783	8.788200
1798.111417	8.991700
1801.570500	8.796800
1797.804733	9.013200
1797.182017	9.024100
1810.826967	8.155000
1811.672683	8.077800
1806.202333	8.380500
1794.665617	9.052600
1804.939883	8.380500
1802.349500	8.474900
1802.844150	8.385200
1792.382600	8.995400
1799.992667	8.514700
1791.578100	8.994200
1787.932300	9.072800
1797.601183	8.448000
1795.174567	8.581600
1799.019950	8.329400
1792.918850	8.570000
1800.171800	8.090300
1795.640500	8.208500
1800.842617	7.874500
1788.312417	8.600800
1798.051150	7.972100
1794.479217	8.089900
1791.650200	8.167400
1783.822233	8.582700
1783.443833	8.586600
1783.012067	8.615500
1783.136550	8.591000
1784.924033	8.490000
1783.096883	8.585700
1779.912350	8.766200
1781.769767	8.567200
1777.865867	8.785900
1783.759667	8.438200
1783.502600	8.456600
1770.904567	9.128800
1786.235900	8.191700
1779.324617	8.569300
1786.025050	8.141900
1774.447433	8.721000
1785.476383	7.999200
1773.343433	8.635800
1781.923633	8.132700
1784.372567	7.942900
1779.237033	8.251800
1779.252300	8.149700
1775.828033	8.282400
1773.045383	8.401500
1778.098117	8.103100
1773.229933	8.376300
1773.894733	8.320200
1778.381767	7.999000
1769.094733	8.403300
1765.983017	8.558800
1766.736717	8.558800
1775.039750	8.032700
1771.958817	8.122000
1771.822617	8.069800
1780.730317	7.471600
1770.693267	8.033500
1764.416333	8.365200
1764.567283	8.332800
1759.478050	8.507000
1759.697067	8.449600
1750.278567	8.964100
1750.308967	8.977600
1752.977917	8.835400
1750.923333	8.981100
1751.806500	8.762600
1752.562533	8.704500
1756.583800	8.443400
1769.419450	7.659500
1749.871833	8.656500
1752.327250	8.454500
1749.534317	8.558800
1747.155383	8.694600
1748.771383	8.592000
1754.157900	8.257400
1747.815533	8.543100
1750.946183	8.261400
1767.911900	7.184600
1748.826200	8.298500
1749.784917	8.219200
1747.229333	8.358300
1741.156300	8.697800
1743.016233	8.547600
1740.194150	8.708300
1743.343733	8.516100
1746.668717	8.285200
1747.913300	8.054000
1739.952417	8.504800
1749.774583	7.865400
1740.759283	8.388600
1737.624733	8.554200
1748.271067	7.916800
1743.461717	8.069500
1742.683367	8.059300
1737.112767	8.335000
1736.083117	8.409700
1739.073217	8.209600
1744.713700	7.853900
1727.947233	8.786100
1738.553683	8.135700
1740.177933	8.017500
1737.970133	8.130000
1727.503983	8.709900
1730.789517	8.479000
1728.320983	8.604300
1730.814483	8.441100
1734.412933	8.225100
1734.278517	8.233600
1735.020050	8.114300
1733.318400	8.083700
1733.081600	8.071400
1726.583483	8.388600
1724.678750	8.485400
1729.340033	8.205000
1729.435133	8.202900
1727.217317	8.178700
1728.762983	8.056800
1723.130633	8.328000
1726.819017	8.092300
1730.882083	7.839000
1722.982100	8.305700
1713.732167	8.670700
1724.930167	7.991800
1731.256267	7.597900
1728.151050	7.754600
1716.371200	8.312000
1721.760350	7.937300
1711.846900	8.474900
1719.510200	7.977200
1716.841183	8.111700
1707.405067	8.681200
1713.376550	8.262200
1707.697800	8.514800
1718.222433	7.865700
1712.414633	8.213400
1715.232700	7.979600
1711.022250	8.120300
1712.960817	7.994800
1707.325133	8.267700
1713.519733	7.875000
1715.772383	7.722300
1705.382433	8.315700
1709.901417	7.927600
1709.630800	7.894700
1710.378650	7.811000
1705.084017	8.108500
1704.942333	8.106300
1708.758550	7.869800
1703.518200	8.057600
1709.570950	7.633400
1701.108067	8.081500
1703.231783	7.932900
1697.868867	8.239600
1704.009917	7.861600
1699.564083	7.994700
1698.608750	8.016800
1694.930667	8.229100
1703.495983	7.712400
1697.716633	8.010900
1695.218050	8.070500
1690.355517	8.347300
1695.597500	7.998500
1689.276617	8.356900
1691.182700	8.232800
1688.282050	8.390000
1689.048783	8.232300
1685.120883	8.430900
1686.634967	8.304400
1684.583117	8.424100
1687.188217	8.264500
1682.229283	8.566500
1687.003950	8.131700
1679.042067	8.588800
1696.256183	7.548300
1689.038667	7.981900
1682.696933	8.221200
1693.145300	7.544600
1683.614967	8.072800
1685.638083	7.935000
1682.012750	8.149700
1692.028667	7.507900
1690.164500	7.508300
1686.278283	7.676400
1678.187967	8.143000
1683.149500	7.812800
1673.570117	8.360800
1680.684367	7.951600
1682.090717	7.858900
1676.237333	8.063400
1680.013017	7.840300
1673.998550	8.170700
1674.910617	8.117500
1674.094750	8.089100
1676.009517	7.951300
1677.704733	7.782600
1674.504617	7.948900
1677.116217	7.756900
1671.318100	8.102900
1670.647067	8.002900
1668.615317	8.079400
1671.037217	7.857700
1673.594817	7.696000
1669.331300	7.937300
1674.074233	7.630500
1656.309350	8.506400
1664.699283	8.013300
1666.641283	7.892700
1670.283450	7.654700
1666.657783	7.799400
1651.686650	8.577500
1661.492033	7.974000
1662.782317	7.819900
1658.531683	8.065800
1659.796083	7.974000
1669.269883	7.393500
1664.118267	7.636300
1664.167333	7.621200
1650.806800	8.378900
1653.529850	8.227700
1660.062867	7.831300
1659.389600	7.851500
1656.451167	7.876000
1645.721550	8.516000
1656.604733	7.863300
1655.233150	7.928600
1651.959033	7.990800
1656.188600	7.680800
1653.825883	7.759500
1647.299317	8.146600
1644.326850	8.314100
1647.289383	8.139900
1650.072200	7.844600
1647.169150	7.957400
1657.263833	7.305300
1647.445167	7.918300
1657.112467	7.324300
1655.231900	7.393400
1647.455117	7.795900
1644.590333	7.878300
1647.513650	7.690100
1642.935533	7.966500
1645.325967	7.796200
1643.637450	7.841600
1650.103383	7.444500
1643.300317	7.727800
1639.395133	7.966500
1643.637500	7.706000
1634.575117	8.239300
1637.998417	7.905700
1641.491783	7.658400
1632.247983	8.158500
1634.674367	7.992400
1644.196750	7.402100
1636.830683	7.828200
1640.096100	7.541300
1641.299817	7.453900
1641.676567	7.363000
1635.764033	7.728900
1635.307783	7.662300
1631.432900	7.811300
1630.284333	7.844700
1628.590367	7.928800
1635.796250	7.477700
1632.146900	7.666400
1632.135017	7.607200
1637.317100	7.184600
1633.776117	7.360300
1642.444067	6.771700
1645.596950	6.565700
1637.985250	6.993500
1628.461000	7.536800
1630.036867	7.264600
1626.687017	7.482100
1633.207583	7.091400
1627.623433	7.410900
1615.522483	8.022300
1614.474617	8.059600
1622.068717	7.554400
1617.916933	7.801800
1611.918433	8.157600
1615.511417	7.951600
1610.767633	8.201100
1616.144733	7.833900
1617.080433	7.787100
1622.737733	7.416000
1621.172733	7.466100
1626.865417	7.060600
1611.856283	7.910100
1619.666117	7.395100
1623.191117	7.129000
1617.143783	7.397100
1617.271867	7.384600
1614.736867	7.515400
1612.996400	7.583300
1609.432400	7.637600
1604.701250	7.905800
1612.387733	7.445100
1616.271550	7.175000
1607.056500	7.711100
1604.520783	7.862700
1605.923750	7.547900
1603.395617	7.690300
1604.994150	7.577300
1598.719783	7.960200
1605.649150	7.426700
1611.824433	6.980100
1605.973233	7.269900
1604.766517	7.321000
1591.574533	8.065800
1604.712100	7.297400
1610.164950	6.951200
1601.777433	7.464600
1604.255367	7.219000
1587.632567	8.053300
1599.629717	7.304200
1599.897150	7.258700
1602.510433	7.082700
1595.962267	7.406500
1594.730483	7.484700
1594.169367	7.525600
1598.532600	7.271000
1596.840433	7.208700
1597.103350	7.154600
1598.691767	7.034800
1598.328517	7.039000
1594.276500	7.260500
1591.005217	7.440100
1592.747517	7.250200
1583.218000	7.835000
1602.276217	6.666100
1583.742167	7.791700
1583.453800	7.708100
1587.002667	7.442200
1584.239067	7.564900
1591.934150	7.061000
1581.023083	7.709100
1588.812783	7.223100
1582.303850	7.547000
1580.661333	7.544400
1582.853233	7.394400
1583.882800	7.251800
1584.616600	7.195100
1582.393900	7.325900
1587.154467	7.008700
1576.070417	7.513300
1574.462183	7.606200
1585.826950	6.907700
1573.558217	7.676200
1580.567467	7.126000
1583.280350	6.893300
1573.395700	7.445000
1571.663833	7.526400
1577.412267	7.177600
1571.836083	7.509000
1573.626250	7.286000
1575.117283	7.159200
1577.749850	6.928400
1571.576067	7.286500
1571.478767	7.287100
1568.379700	7.451000
1544.969967	8.700400
1565.020467	7.483300
1573.351617	7.006300
1573.837550	6.952100
1572.846933	6.958200
1574.553117	6.814000
1572.652433	6.929700
1564.549283	7.362300
1560.907933	7.560300
1569.206867	7.054600
1569.358283	6.992100
1559.128200	7.473800
1557.286433	7.574700
1563.825500	7.123400
1560.087750	7.350500
1559.418300	7.372700
1558.006067	7.422400
1560.995333	7.100700
1561.589467	7.028800
1549.340150	7.689500
1556.724500	7.238600
1556.278400	7.236500
1549.291783	7.649700
1561.778733	6.769500
1557.462850	7.028000
1545.630083	7.736100
1552.401633	7.330800
1555.271900	7.067300
1543.147983	7.730100
1544.376000	7.572800
1548.249950	7.337000
1549.544233	7.266600
1548.849150	7.290200
1547.485283	7.305300
1548.928883	7.206300
1563.769400	6.303500
1556.516917	6.744700
1550.561933	6.998400
1556.077967	6.562000
1548.299317	6.979000
1542.840967	7.232200
1539.700050	7.402100
1542.562900	7.204700
1549.342700	6.786800
1543.378567	6.996400
1532.788800	7.592900
1540.594633	7.096500
1540.668483	7.090200
1542.919583	6.938700
1546.864350	6.715400
1537.485333	7.120500
1547.756083	6.457800
1533.976617	7.179400
1536.208317	7.060300
1539.871883	6.825900
1539.875583	6.797700
1533.256667	7.037800
1542.761767	6.430000
1534.510200	6.899900
1535.711617	6.809800
1529.416267	7.105600
1522.803733	7.418700
1531.700850	6.865700
1525.015650	7.229600
1530.445767	6.869200
1525.217517	7.058800
1526.672583	6.937200
1530.042900	6.714800
1523.272983	7.110300
1522.480983	7.111200
1524.811933	6.956100
1527.062117	6.810100
1523.111500	7.038500
1516.106167	7.412800
1523.581617	6.942700
1524.323800	6.872900
1523.873017	6.907000
1525.189900	6.674300
1520.191550	6.887900
1525.804633	6.477600
1527.271167	6.380800
1524.453033	6.552600
1519.145283	6.858900
1507.682067	7.467100
1515.068633	6.967800
1518.206650	6.746300
1514.065717	6.950200
1521.388033	6.498300
1517.860700	6.682400
1514.035550	6.884900
1515.003983	6.817500
1511.458017	6.964300
1506.016750	7.139900
1513.866367	6.672700
1510.094450	6.854900
1506.995150	7.032500
1501.639633	7.296900
1499.492217	7.444600
1512.097983	6.688500
1515.852083	6.460800
1509.841350	6.626000
1508.963517	6.689500
1506.642450	6.820100
1509.308900	6.648800
1493.776000	7.433600
1494.896450	7.339100
1483.950500	7.967900
1497.864017	7.120300
1501.149583	6.899700
1491.461033	7.464600
1493.556700	7.266500
1492.939150	7.257500
1495.606000	7.063100
1495.772667	7.023400
1494.569183	7.096800
1486.724917	7.544800
1494.180600	7.033700
1492.848267	7.020100
1491.746650	7.074500
1485.636417	7.441000
1491.751950	6.979700
1495.986200	6.618800
1492.518433	6.794100
1484.052300	7.238000
1484.705017	7.193800
1486.914833	7.079700
1488.390483	6.978300
1488.904550	6.900200
1488.965750	6.871700
1487.702367	6.915400
1480.056017	7.363000
1491.038467	6.674800
1486.882383	6.907200
1495.010917	6.335800
1488.493250	6.694100
1487.427117	6.666400
1481.783933	7.003800
1478.778267	7.170100
1486.316667	6.691000
1484.960200	6.607700
1481.719433	6.765000
1484.815833	6.513300
1483.580600	6.596600
1487.635267	6.234100
1475.985283	6.813600
1477.191617	6.685600
1478.436967	6.583900
1473.104017	6.878200
1477.133350	6.631700
1475.373900	6.710000
1477.559083	6.431700
1475.232867	6.542800
1472.564333	6.701100
1470.600433	6.820500
1474.360867	6.561100
1461.318783	7.339200
1468.366967	6.766300
1467.459800	6.816800
1464.173617	7.012900
1464.471283	6.972600
1457.470950	7.251500
1464.149550	6.812900
1456.265100	7.264400
1461.832000	6.926300
1455.941517	7.250200
1462.965733	6.838500
1459.831183	6.954600
1459.659683	6.889500
1460.263617	6.830800
1462.081833	6.714600
1464.543450	6.547700
1465.014917	6.489400
1466.861917	6.351400
1456.374983	6.909000
1460.239183	6.661800
1466.759433	6.246300
1467.873083	6.171900
1463.650667	6.327700
1460.711900	6.460100
1456.328633	6.624000
1459.460550	6.435800
1454.759183	6.700800
1458.189300	6.472100
1456.900583	6.395400
1454.737367	6.469600
1444.289867	7.036000
1459.275750	6.131900
1449.732067	6.689500
1453.117650	6.469400
1450.896350	6.469100
1455.322000	6.172400
1445.491650	6.749300
1442.509817	6.889000
1449.830050	6.452600
1453.536050	6.222200
1449.872183	6.351300
1447.758367	6.389200
1442.053950	6.698300
1446.152017	6.454900
1446.617500	6.371300
1443.511817	6.433900
1434.482400	6.956000
1442.719300	6.466100
1442.516417	6.449500
1436.211400	6.677600
1441.840983	6.314700
1434.758500	6.681800
1430.435583	6.930900
1425.614967	7.210300
1435.009783	6.659400
1432.483267	6.795700
1430.799317	6.888100
1437.141617	6.358600
1435.527917	6.400300
1437.933650	6.242300
1428.625967	6.786700
1429.115933	6.741300
1429.980133	6.673500
1431.804550	6.476600
1431.266667	6.490600
1434.630183	6.269400
1437.132083	6.094800
1423.436450	6.759800
1426.345800	6.551300
1433.658917	6.084700
1428.216517	6.387400
1420.815100	6.737300
1424.722217	6.405100
1422.386700	6.525200
1420.906917	6.598900
1423.710633	6.447900
1420.224400	6.633200
1421.448517	6.560800
1420.955767	6.595600
1421.196817	6.552400
1418.238983	6.428100
1410.623233	6.856800
1415.171850	6.575600
1414.673317	6.599800
1419.811500	6.263000
1407.436000	7.014800
1410.854883	6.810300
1410.217367	6.848200
1414.282500	6.339500
1415.061517	6.182200
1404.552633	6.798300
1419.469917	5.906800
1412.466133	6.300900
1413.525067	6.214000
1410.177433	6.298200
1407.926900	6.321200
1403.581867	6.575200
1399.267650	6.815900
1405.284400	6.458000
1413.074300	5.988200
1413.621483	5.930700
1407.451833	6.265800
1405.237533	6.401100
1401.175417	6.640900
1403.362950	6.405500
1397.706617	6.505900
1396.308783	6.597900
1394.962583	6.636900
1396.898433	6.522900
1398.464650	6.420200
1398.397700	6.410600
1399.022800	6.169700
1395.672117	6.340900
1396.336500	6.291800
1396.731950	6.257000
1390.531950	6.482900
1392.916533	6.308700
1394.430283	6.199800
1387.056983	6.622800
1385.462817	6.652300
1384.050600	6.739100
1382.777383	6.795300
1388.472600	6.456200
1381.976667	6.752500
1394.165733	5.969400
1396.177400	5.802800
1391.855167	6.049300
1395.803517	5.797300
1391.205267	6.055000
1382.355483	6.564000
1387.058317	6.256300
1385.631217	6.353500
1386.019383	6.322200
1380.102817	6.553300
1381.577083	6.237300
1380.017633	6.284700
1378.582967	6.366400
1373.529900	6.667400
1375.530083	6.552600
1372.516450	6.718700
1389.841433	5.677800
1382.996283	6.061500
1367.191317	6.910600
1373.267250	6.548000
1374.516467	6.466300
1376.927200	6.285500
1372.247083	6.458700
1387.425100	5.532200
1374.381550	6.278300
1373.179733	6.331500
1368.373183	6.470700
1371.659000	6.246800
1366.566000	6.537500
1367.532900	6.477200
1372.294817	6.174700
1371.598483	6.209100
1376.027333	5.939100
1370.141733	6.267600
1365.247300	6.551000
1361.098333	6.783900
1362.293300	6.608600
1365.483150	6.140900
1363.898200	6.233300
1369.083433	5.904900
1366.547533	6.045600
1361.923133	6.317100
1372.180067	5.679700
1357.229733	6.340200
1355.765417	6.411700
1355.866733	6.404100
1362.691150	5.988800
1360.828450	5.957300
1362.800183	5.791200
1364.218317	5.677600
1357.817600	6.058700
1362.695433	5.743800
1357.102033	6.054000
1352.197767	6.181300
1357.222267	5.818300
1353.389600	6.049400
1352.583033	6.093000
1352.681083	6.070800
1351.973883	6.112500
1353.770317	5.990500
1351.981217	6.097600
1351.658433	6.091800
1357.388167	5.741200
1353.017000	5.759000
1348.696600	5.878400
1337.562667	6.508000
1343.639200	6.161900
1342.207917	6.249100
1347.516900	5.916500
1350.505733	5.661000
1342.812350	5.969900
1344.445733	5.865300
1342.364500	5.957300
1345.012533	5.748300
1339.203233	5.927100
1340.930283	5.824200
1336.712083	6.067500
1326.206217	6.690700
1334.559383	6.197400
1337.715400	6.017300
1335.654850	5.933900
1332.683133	6.070500
1337.645367	5.765200
1325.871250	6.470000
1328.270200	6.327500
1334.198783	5.972100
1333.534883	5.975700
1338.442917	5.716000
1330.249833	6.211500
1331.717817	6.091600
1327.963467	6.187300
1323.533717	6.418300
1335.222400	5.690900
1335.462600	5.634200
1321.914733	6.421500
1323.452533	6.312900
1333.458550	5.600600
1333.395400	5.545700
1322.479783	6.167100
1325.099033	5.994300
1327.788717	5.786200
1326.954033	5.707500
1325.827917	5.740300
1317.017000	6.263900
1317.765483	6.198600
1324.365200	5.783300
1323.318700	5.814200
1312.802483	6.245100
1325.187667	5.472100
1321.499583	5.657400
1313.297300	6.128900
1324.701983	5.445900
1309.102483	6.359400
1317.076050	5.871200
1319.971117	5.696500
1315.320250	5.720600
1315.618550	5.603000
1312.042550	5.778200
1311.986583	5.752800
1311.866883	5.710800
1306.868933	6.036300
1310.225717	5.842600
1310.148717	5.856100
1312.938167	5.605300
1304.568233	6.046200
1307.395567	5.848900
1306.690000	5.882000
1310.904783	5.537700
1306.371383	5.711400
1307.492750	5.625800
1306.362833	5.650500
1299.840317	6.041200
1302.546750	5.850200
1300.223567	5.947600
1297.778733	5.933100
1305.721950	5.445500
1299.990533	5.783100
1296.259683	5.994000
1295.523483	6.003600
1301.192767	5.674900
1295.495383	5.819400
1291.481283	6.047400
1293.749517	5.918800
1291.501217	6.044200
1295.674050	5.644400
1296.355917	5.515600
1294.837633	5.556600
1293.765233	5.611800
1297.757967	5.356600
1291.009733	5.751000
1301.402500	4.964300
1290.024217	5.644600
1293.385583	5.417100
1286.374283	5.823600
1288.745667	5.580400
1288.105200	5.555000
1285.751167	5.688100
1274.792917	6.306100
1274.434183	6.336300
1277.880183	6.146100
1283.474367	5.808700
1284.339233	5.592600
1278.472283	5.916000
1283.608817	5.588200
1283.737217	5.562700
1278.088533	5.894400
1274.580850	6.115400
1275.950150	6.032300
1272.769817	6.221200
1269.868367	6.087100
1273.830283	5.834400
1273.550233	5.845200
1284.394517	5.185600
1280.038450	5.338400
1283.590350	5.059100
1281.234133	5.183100
1274.230717	5.582500
1264.725533	6.141600
1272.302467	5.680900
1267.377250	5.812700
1273.112817	5.411200
1268.566083	5.658300
1263.413067	5.962900
1271.194300	5.474000
1259.909683	6.146100
1264.614517	5.872600
1263.361400	5.947400
1257.877800	6.240500
1260.161600	6.017600
1267.102817	5.568400
1265.801967	5.592100
1257.673317	6.054700
1261.894500	5.786600
1254.552183	6.185700
1256.740017	6.093700
1259.354300	5.939300
1261.463000	5.677400
1256.827000	5.918600
1252.534050	6.152900
1255.693100	5.957300
1258.311100	5.762300
1254.740517	5.950300
1253.182583	6.014700
1252.121900	6.078500
1254.237133	5.826900
1248.888317	6.140200
1259.700400	5.309300
1248.873633	5.891700
1243.200350	6.152900
1246.749000	5.887400
1250.432733	5.668800
1251.143483	5.612400
1243.908633	6.028800
1245.063700	5.932100
1255.250083	5.252400
1248.176200	5.592800
1246.994583	5.637000
1242.963767	5.822800
1236.038300	6.233300
1246.065650	5.629100
1244.357217	5.725600
1240.456017	5.931100
1238.036000	6.060500
1243.684733	5.587500
1238.380200	5.855000
1242.985517	5.536000
1245.181167	5.383900
1242.379833	5.524200
1243.696967	5.418100
1239.942017	5.615500
1236.826650	5.785400
1235.897033	5.500200
1237.157050	5.402600
1231.484033	5.668800
1233.317817	5.549500
1235.553800	5.286800
1235.173950	5.251400
1230.687500	5.517800
1226.468850	5.734700
1224.494667	5.840500
1230.054550	5.500700
1231.278883	5.363100
1232.070633	5.237400
1229.467483	5.356200
1228.367567	5.398300
1225.997700	5.505500
1227.970200	5.350400
1222.932617	5.641600
1216.795733	5.993700
1222.482750	5.632100
1219.956500	5.487200
1216.600000	5.642600
1218.525317	5.525500
1213.534267	5.802400
1217.919617	5.423800
1213.218033	5.668800
1212.129167	5.726500
1206.901633	6.025500
1216.123517	5.454700
1227.028667	4.792900
1211.089050	5.605100
1206.704667	5.769100
1212.948167	5.372500
1212.896950	5.380400
1220.074200	4.933700
1208.817467	5.578000
1213.710417	5.286700
1216.652900	5.110400
1212.354100	5.216900
1202.766500	5.567000
1205.978000	5.367800
1202.678833	5.548200
1206.055633	5.327100
1206.050183	5.337600
1203.861633	5.436300
1198.285000	5.756300
1203.914000	5.398700
1200.500350	5.316500
1200.729333	5.301300
1198.212600	5.461700
1204.364083	5.082300
1194.969467	5.491300
1196.499617	5.410000
1195.490567	5.450500
1200.034750	5.165000
1190.282967	5.626900
1189.283450	5.643200
1198.560533	5.081400
1200.662150	4.949600
1186.653000	5.763200
1189.133000	5.622200
1199.214783	5.003700
1199.614167	4.965700
1197.469267	5.071300
1193.682983	5.278200
1189.962517	5.240800
1183.697650	5.497400
1184.601917	5.422300
1197.791667	4.632700
1183.371000	5.475500
1187.166217	5.240500
1182.526333	5.511000
1188.897433	5.158500
1183.902450	5.409200
1186.906367	4.969300
1184.238967	5.110000
1179.846033	5.377200
1178.942350	5.445200
1176.021117	5.473300
1180.224817	5.204500
1179.741450	5.250200
1175.263117	5.519500
1175.904417	5.424100
1172.864733	5.568600
1176.746500	5.336300
1178.818383	5.220900
1174.813383	5.431500
1171.147067	5.646700
1171.893717	5.625100
1170.456500	5.700800
1174.900400	5.435600
1180.370383	5.092500
1175.931733	5.114400
1179.703633	4.742400
1171.317900	5.182400
1165.319800	5.511500
1169.463100	5.245700
1173.811583	4.980300
1165.894183	5.452200
1166.259967	5.403400
1160.451800	5.551700
1168.180233	4.985700
1172.491800	4.701500
1170.328483	4.799700
1169.290067	4.843600
1170.364183	4.653900
1165.836833	4.920000
1163.481083	5.049300
1158.171567	5.344000
1165.416567	4.773400
1159.988300	5.072900
1155.664033	5.322300
1150.904717	5.595700
1160.370617	4.919800
1156.177967	5.093800
1154.217183	5.204100
1153.783133	5.219700
1156.604217	5.045500
1150.734733	5.384700
1149.232867	5.489800
1148.707717	5.506900
1148.956833	5.361300
1150.122267	5.086600
1152.475633	4.900200
1148.023917	5.153500
1154.726150	4.743500
1147.715633	5.102400
1146.493950	5.133800
1139.781267	5.518600
1141.622717	5.409400
1146.710350	5.110700
1140.131000	5.480000
1145.616383	5.084700
1143.064233	5.219100
1154.238033	4.528500
1150.880050	4.692500
1144.844500	5.040500
1147.823983	4.876200
1146.465483	4.918800
1146.660267	4.885600
1136.706750	5.184500
1136.202233	5.188800
1141.829967	4.821400
1142.866383	4.734900
1137.694367	4.931200
1133.694417	5.086600
1132.827767	5.086600
1127.715650	5.402000
1134.230850	4.992200
1131.819483	5.126100
1125.494083	5.403300
1121.438150	5.499500
1119.810050	5.603600
1127.688800	5.129900
1122.245933	5.444100
1119.679717	5.593900
1118.780417	5.635600
1122.219400	5.430200
1131.270600	4.849400
1127.956833	4.766400
1122.940450	5.052200
1122.932467	5.028700
1120.449783	5.173200
1119.909933	5.194200
1117.566917	5.326600
1123.130767	5.002000
1120.506117	5.139700
1115.732517	5.124400
1112.820733	5.289000
1114.148300	5.200700
1106.817500	5.621000
1113.033083	5.127600
1115.565833	4.925400
1112.524800	5.065700
1115.607933	4.922100
1113.268350	5.042300
1109.909317	5.213800
1103.288583	5.543400
1109.519000	5.055200
1105.518467	5.284000
1106.013467	5.256400
1108.588917	5.111800
1106.141967	5.247700
1106.943250	5.190800
1111.163517	4.944700
1115.684467	4.578700
1105.724167	4.964500
1107.783383	4.805700
1108.419917	4.751500
1105.482267	4.926400
1114.873167	4.326700
1109.959100	4.605500
1103.925250	4.957100
1099.647717	5.202700
1096.683717	5.048200
1098.275017	4.944700
1095.399950	5.114000
1092.365100	5.285900
1105.321200	4.365500
1095.889000	4.882400
1103.105083	4.431000
1100.574567	4.574500
1096.806633	4.747200
1092.389917	4.902100
1094.856167	4.762900
1096.784300	4.638200
1092.448750	4.882100
1097.892767	4.563700
1095.199450	4.689800
1096.608750	4.611800
1090.977367	4.944700
1087.168267	5.176900
1088.302683	4.998300
1084.053550	5.033000
1084.127533	5.007600
1084.861833	4.950900
1081.993650	5.104100
1089.369117	4.684900
1089.336783	4.674000
1090.585200	4.595900
1088.621217	4.691800
1078.475750	4.999700
1082.830717	4.710400
1081.278867	4.802200
1078.030917	4.995700
1073.396867	5.149600
1076.779233	4.918800
1072.327467	5.168500
1078.723917	4.791100
1071.990950	5.181800
1074.352117	5.039200
1078.391750	4.620500
1074.748617	4.783000
1075.613617	4.706800
1078.723817	4.510900
1078.770300	4.495700
1076.624183	4.602000
1073.467467	4.784800
1074.470383	4.702800
1069.568000	4.879100
1068.463767	4.764700
1069.779200	4.676900
1068.673033	4.735200
1071.368650	4.535900
1057.216167	5.362000
1064.708917	4.931500
1071.311600	4.532600
1071.779767	4.474300
1064.365900	4.667000
1065.226350	4.600400
1059.863750	4.903100
1065.807500	4.543400
1066.922317	4.403500
1064.909767	4.524400
1059.428917	4.845400
1061.392983	4.716000
1061.668783	4.626000
1059.349117	4.730500
1051.413767	5.188000
1054.070683	5.017800
1061.698917	4.529800
1059.108467	4.661500
1054.951617	4.813900
1057.150967	4.559500
1050.197783	4.963800
1054.423100	4.692200
1052.721700	4.771100
1046.979633	5.095500
1047.586233	5.024400
1047.013467	4.861600
1053.026350	4.478900
1046.903917	4.822300
1049.272700	4.668800
1049.176317	4.618300
1048.243467	4.672300
1048.948450	4.587800
1041.406950	5.037200
1053.436967	4.296100
1041.904750	4.972400
1047.328650	4.427900
1052.301900	4.115000
1051.425150	4.143800
1045.039167	4.509700
1046.105917	4.324000
1042.180067	4.468300
1047.747933	4.141800
1042.236800	4.446200
1040.914967	4.508800
1038.458617	4.628200
1038.135583	4.651800
1040.515867	4.478800
1037.044450	4.698500
1041.774817	4.417600
1032.627517	4.816000
1033.384383	4.581000
1036.174717	4.375600
1034.858967	4.453900
1033.227650	4.526900
1015.514983	5.425800
1026.512200	4.772600
1024.484683	4.893900
1021.504850	5.068700
1019.075633	5.155500
1018.095483	5.201400
1026.521267	4.683100
1018.998717	5.133400
1026.715350	4.659500
1023.278867	4.864900
1022.248100	4.914800
1023.889700	4.818200
1009.136983	5.442000
1012.415050	5.163800
1017.120217	4.888900
1024.822333	4.421700
1021.855717	4.558600
1019.279767	4.712500
1021.862417	4.554100
1017.559100	4.829600
1019.963583	4.619400
1016.346667	4.764100
1011.131567	5.032900
1017.064967	4.651000
1018.424083	4.542000
1016.883317	4.617400
1017.916850	4.532300
1008.048350	5.113400
1013.466133	4.737600
1002.105500	5.114600
1006.228367	4.845400
1006.453250	4.820300
1010.276367	4.579300
1009.067167	4.509100
1006.209167	4.632700
1011.408717	4.309300
1010.063067	4.379800
1001.001067	4.896100
1001.936767	4.816000
999.686150	4.781300
995.748417	4.972900
1001.247033	4.636200
998.866500	4.774700
1000.045683	4.674000
1003.798533	4.471200
996.078633	4.929300
1005.604483	4.341300
1000.936083	4.310400
991.956617	4.836700
997.987900	4.455800
1001.953783	4.173300
997.903117	4.386400
1001.082033	4.138800
1001.952100	4.061600
991.501750	4.669100
995.054867	4.438000
997.416200	4.266200
998.358500	4.175600
995.415317	4.269700
991.702817	4.469200
995.047683	4.248000
997.053050	4.098800
994.769767	4.205500
993.223167	4.291300
986.220717	4.702600
994.462567	4.197100
987.167650	4.379600
983.320467	4.563400
980.002300	4.748000
980.948367	4.683100
990.632467	4.125100
987.297900	4.287200
985.725450	4.369400
986.008000	4.331900
983.228750	4.382900
983.531317	4.325500
979.024017	4.562800
983.405733	4.283100
992.925267	3.676600
988.882867	3.881500
974.480100	4.704800
980.369517	4.347400
979.532983	4.349100
980.476817	4.207000
982.839717	4.041400
977.453583	4.332000
979.541867	4.174000
975.369183	4.159200
973.488117	4.239400
976.093500	4.078700
970.140800	4.424000
974.099300	4.162400
974.175033	4.149300
972.667150	4.054400
971.179417	4.064800
965.559850	4.382600
966.930117	4.290100
972.619167	3.930100
964.343550	4.429100
970.922917	4.032700
961.757417	4.573900
968.442433	3.873300
967.313700	3.927200
960.806583	4.274700
963.827817	4.096600
964.877200	3.918200
968.798550	3.615200
970.543667	3.475000
961.476100	3.977000
951.973867	4.520200
954.906067	4.345600
963.717633	3.778200
957.128083	4.025700
951.842917	4.339900
952.939350	4.270700
950.989617	4.343500
953.138233	4.093800
954.724883	3.969900
950.980183	4.123500
955.636117	3.838300
959.003217	3.632500
958.641083	3.641100
948.736033	4.098000
950.111567	3.988000
956.398467	3.548800
955.906833	3.559800
944.350650	4.255100
942.749750	4.364900
945.368900	4.041800
940.045283	4.381200
940.106317	4.357600
946.399633	3.963000
947.569650	3.791900
944.069017	3.935500
946.573100	3.743900
938.046700	4.241600
946.843400	3.703400
936.883133	4.290600
933.198133	4.455600
935.169717	4.248100
931.841833	4.426500
937.884050	4.068500
932.168033	4.368900
931.901633	4.277100
942.392933	3.628500
929.590533	4.350600
942.852550	3.559700
941.758183	3.598800
937.734183	3.828600
938.585250	3.699500
928.156083	4.283400
928.845217	4.186600
922.780633	4.543800
945.184667	3.190900
930.510867	4.041400
929.913217	3.962200
929.213233	3.953700
924.236617	4.190800
927.820783	3.963600
922.565417	4.234900
920.015800	4.384400
932.588067	3.502600
924.698250	3.936200
922.467083	4.078800
923.765100	3.987200
917.435050	4.295900
913.765783	4.431000
917.875817	4.187800
926.931767	3.618700
917.460950	4.149200
921.308500	3.873800
928.539500	3.429200
918.075583	3.995700
916.005333	4.107300
913.669350	4.211600
918.139183	3.946500
918.137933	3.919200
919.826617	3.821800
914.350383	4.016700
907.886800	4.408100
908.816750	4.341200
911.449333	4.179300
900.749150	4.664600
908.522717	4.178500
910.926050	4.033700
900.183800	4.657400
905.537083	4.260600
906.925400	4.150400
918.795217	3.352300
911.468983	3.704100
910.223433	3.744600
908.044383	3.860700
911.054150	3.633800
906.440317	3.876400
894.631650	4.573400
898.745450	4.295600
904.076967	3.928000
908.045583	3.551100
905.741083	3.655500
903.165017	3.745900
898.586850	4.007900
892.897933	4.291500
889.213350	4.475600
895.464750	4.090100
889.710983	4.432800
898.478083	3.802500
895.304850	3.939200
898.719733	3.675000
887.114467	4.336300
892.488817	4.014700
898.366950	3.653300
901.447883	3.330000
893.642200	3.734000
884.964683	4.247400
883.104800	4.341200
896.481400	3.508400
892.432617	3.665200
882.467650	4.204700
887.003683	3.864900
881.434083	4.197600
880.282933	4.235700
883.757767	3.994900
876.977583	4.289400
881.503233	4.006200
889.449617	3.510100
877.901167	4.182700
877.984067	4.042900
879.088800	3.936500
869.381133	4.492200
871.271017	4.380100
872.025950	4.337900
869.583183	4.492500
878.571767	3.841000
869.057167	4.372600
878.316950	3.773900
880.451200	3.609200
873.020350	4.050200
870.841267	4.153000
864.613600	4.483100
878.265883	3.639600
881.865183	3.374100
872.495783	3.921000
876.061133	3.681000
875.553900	3.679700
874.248183	3.672000
875.449250	3.538100
876.489467	3.416800
872.194983	3.622200
869.322400	3.750500
866.002183	3.953100
864.584650	4.019300
856.929567	4.334200
858.315383	4.262400
867.090167	3.738700
860.405583	4.105800
859.816500	4.009100
860.043650	3.986000
866.127567	3.553600
864.523317	3.630400
860.257383	3.874200
861.871000	3.759200
869.164083	3.153900
858.101333	3.822600
865.126583	3.393600
861.390550	3.589700
855.195183	3.943200
854.279850	3.956000
859.784850	3.611900
860.972650	3.491600
853.154967	3.911800
849.238433	4.190100
853.134950	3.906500
849.691333	4.006200
852.029433	3.834300
852.612800	3.734900
851.402883	3.776100
849.768567	3.868300
845.644750	4.074800
846.629650	3.889100
845.125533	3.945900
841.958000	4.079600
847.225600	3.774500
842.520133	4.042500
840.498050	4.157900
844.360650	3.779900
834.345883	4.366500
842.794283	3.847500
832.623400	4.451300
836.864000	4.152200
845.735400	3.592400
836.547050	4.115300
832.522033	4.328400
831.549300	4.341800
841.375267	3.768400
835.487767	3.997900
839.031067	3.708700
837.429867	3.728200
840.838817	3.516400
836.656467	3.757900
843.178983	3.355800
832.299983	3.932700
832.616883	3.808800
830.823867	3.890800
836.969717	3.517600
828.865867	3.963400
836.987133	3.348600
839.089267	3.198400
830.181533	3.662100
831.928333	3.539400
840.276417	3.010900
834.646917	3.312400
829.480317	3.478900
831.539250	3.298100
831.804800	3.247400
820.841233	3.883800
825.088283	3.629700
821.293883	3.866100
809.473617	4.446700
814.213817	4.132600
815.693500	4.037600
817.085567	3.981700
812.070683	4.188000
819.617833	3.681600
813.926083	3.922200
822.442000	3.429200
813.474717	3.955000
822.219617	3.422200
821.040083	3.476100
812.733700	3.906200
816.102117	3.675700
808.699983	4.056900
800.903317	4.520200
818.649767	3.459100
822.879417	3.187900
822.214250	3.103100
815.009967	3.526900
820.553667	3.160000
813.395933	3.609600
808.218817	3.778900
803.730750	3.998000
797.400217	4.336600
800.120300	4.171700
811.830800	3.439100
805.215183	3.813900
809.016733	3.437100
812.573083	3.191700
810.935400	3.269000
812.883100	3.123200
799.628017	3.846700
803.845250	3.481700
809.217317	3.127600
797.191317	3.792400
805.802967	3.274000
801.422333	3.528900
799.462550	3.599300
798.446383	3.536400
792.082083	3.909300
797.799067	3.529600
795.254650	3.664400
792.028000	3.850400
788.648267	4.042000
793.930817	3.587200
789.373867	3.841300
794.765533	3.468300
799.178467	3.172600
788.920117	3.757300
791.219083	3.630000
791.818050	3.431000
791.191800	3.470600
792.740433	3.338700
789.482383	3.509400
786.407750	3.555800
793.259333	3.083700
787.468783	3.362100
790.522200	3.184700
780.749217	3.757000
790.017783	3.168300
782.997550	3.545300
786.360800	3.322400
789.953883	3.051600
786.954917	3.198400
778.024683	3.725400
777.570967	3.746800
780.345667	3.535600
775.363683	3.730200
781.139483	3.358800
785.462917	3.097000
783.475983	3.183900
780.045533	3.210900
781.971983	3.054600
785.741050	2.768300
780.916733	3.053100
761.870733	4.147800
776.436417	3.295600
779.616483	2.979000
771.999133	3.366300
771.728933	3.305400
776.970050	2.994800
774.060617	3.144700
771.216633	3.293400
768.596883	3.385200
761.035683	3.823200
765.961533	3.536700
764.110183	3.610200
760.559250	3.756800
769.489700	3.213200
768.456783	3.232800
765.463133	3.372900
767.174167	3.282400
771.600000	2.961800
766.312033	3.216600
770.238600	2.854100
767.755050	2.982200
768.448733	2.869500
761.096517	3.300700
768.130967	2.850400
758.315900	3.398600
760.765333	3.111000
758.866467	3.220300
761.007183	3.071400
758.191733	3.228300
752.528950	3.484100
758.894017	3.108100
755.668267	3.210700
756.852550	3.132200
749.454917	3.546100
756.643050	3.114500
758.119617	2.885500
753.803700	3.066500
754.191400	3.019100
750.686050	3.201800
752.129367	3.098800
740.843050	3.743300
749.711033	3.179400
743.106200	3.451400
742.146800	3.488900
746.862850	3.165500
746.098700	3.197600
742.418783	3.430500
742.611733	3.367200
739.680583	3.393600
742.303867	3.231400
728.045767	4.072300
726.731100	4.186100
737.067717	3.523000
746.509717	2.921200
745.308267	2.936200
733.998317	3.582400
748.571383	2.736900
737.927283	3.369600
741.375483	3.110100
735.813083	3.388500
733.863783	3.455400
739.051283	3.134400
734.481067	3.385900
735.187700	3.329600
731.561517	3.361000
735.877083	3.116400
730.084750	3.439700
733.054433	3.245100
737.649967	2.896000
736.325300	2.865200
727.532500	3.359300
722.055583	3.646200
724.479400	3.500900
729.566533	3.178200
724.888433	3.438000
722.380500	3.461300
722.041167	3.451900
731.001583	2.836500
724.545667	3.204400
721.836000	3.380000
725.596067	3.151600
712.601133	3.761400
717.637567	3.458800
718.921233	3.360300
719.913267	3.297400
719.730083	3.192300
723.984700	2.906600
719.149083	3.142500
714.392283	3.405600
727.247100	2.618000
721.408417	2.958100
718.261850	3.055400
709.955467	3.448300
709.289183	3.449400
712.258500	3.234800
708.955017	3.412000
708.664650	3.418700
708.947333	3.387300
709.986067	3.346900
706.544050	3.528200
713.775133	3.092700
707.901317	3.442600
712.485400	3.079100
711.403700	3.101000
702.830850	3.563000
711.825083	3.019500
711.497933	2.988600
711.272833	2.970900
715.825383	2.559900
708.326750	2.947400
694.732867	3.682300
703.146050	3.154400
707.833017	2.854000
700.644600	3.283100
703.008883	3.024600
697.440850	3.302600
701.005083	2.999100
697.738833	3.221400
695.690417	3.336100
701.333283	2.980800
699.041367	3.056800
699.025000	2.922500
693.473700	3.238400
703.015767	2.652100
701.850950	2.710700
694.712683	3.062100
692.474433	3.179700
691.224367	3.187900
689.993550	3.241700
692.721100	3.054200
687.511450	3.369800
688.253517	3.195400
681.664617	3.559900
690.579183	2.988600
688.757883	3.062100
688.266333	3.075000
686.313517	3.178900
670.980717	3.939700
676.697083	3.600900
690.428800	2.771000
683.804767	3.134200
679.571567	3.344500
676.901200	3.478400
686.311883	2.868000
691.201950	2.537600
683.759050	2.964800
682.051983	3.059400
683.286100	2.927900
676.098400	3.224300
681.179483	2.928900
680.837550	2.923100
686.028400	2.596700
676.851800	2.973800
677.424617	2.901400
672.424683	3.130800
677.192717	2.833900
676.146117	2.879500
680.548200	2.597300
675.301617	2.794900
667.426467	3.223600
663.162300	3.450200
668.063383	3.161400
668.555600	3.104000
671.571483	2.924400
671.437017	2.825200
669.181383	2.888100
674.019033	2.563800
666.765767	2.936800
672.930500	2.561300
668.659417	2.794600
661.026700	3.195200
653.655917	3.534100
664.099483	2.911500
658.788517	3.240400
653.913400	3.475700
659.706700	3.015800
659.826750	2.978900
657.273883	3.067800
658.731550	2.977400
662.327750	2.751200
661.185433	2.809500
657.154950	2.913500
655.438350	3.013700
660.811967	2.611000
654.473717	2.970700
651.444500	3.134900
654.162000	2.953700
650.200150	3.095300
656.087300	2.729000
650.807500	3.033200
644.169133	3.398400
647.781883	3.153300
647.094033	3.171300
654.452150	2.668700
658.236517	2.438200
645.197017	3.218500
648.366200	2.997800
651.593917	2.751400
647.049333	2.922000
649.962033	2.737800
645.948233	2.902800
646.865617	2.841100
640.566783	3.194700
648.504950	2.697200
635.653533	3.301200
637.337850	3.192800
640.079633	3.041100
642.827700	2.854400
641.323800	2.887400
638.670933	3.025800
641.735850	2.801300
630.592083	3.448800
626.690633	3.649500
633.714417	3.229900
628.870700	3.408200
636.273650	2.930300
637.892133	2.753700
631.113183	3.153900
639.603367	2.642500
637.735717	2.741200
632.844100	2.924900
629.275950	3.060800
624.446617	3.323500
630.710933	2.895600
636.731967	2.502100
636.278300	2.501900
638.612467	2.279500
630.184783	2.667600
629.847667	2.639800
623.547850	3.013100
627.192983	2.783700
623.750917	2.886700
615.345750	3.380300
618.251317	3.134200
618.377233	3.138300
620.689783	2.991000
626.098867	2.636800
611.548817	3.390100
621.645217	2.761600
616.705233	3.009600
618.326500	2.902400
618.859900	2.864900
611.638267	3.296200
617.991967	2.743900
613.145750	3.026300
616.708850	2.810300
614.897000	2.913200
614.632967	2.805100
607.009300	3.212900
607.517917	3.165400
604.968250	3.276500
604.455933	3.321300
609.223033	3.029100
609.301767	2.958700
603.727450	3.212900
606.429500	3.023300
609.587383	2.814300
606.195150	3.012800
606.539583	2.960700
595.735367	3.561400
600.635917	3.231100
597.906600	3.397100
601.372867	3.179800
608.825183	2.708400
603.429750	2.891600
599.451317	3.100900
612.882217	2.236000
604.793033	2.691600
605.375117	2.640400
597.966783	3.087000
603.100200	2.681600
596.168517	3.020800
600.902833	2.690700
593.080167	3.122500
593.590683	3.080400
593.001933	3.101400
599.258950	2.665100
598.636767	2.587000
590.053117	3.073300
592.990650	2.870300
585.512150	3.318200
590.733600	2.849000
591.698967	2.770300
584.707833	3.136500
594.279233	2.538300
583.065167	3.201100
586.624733	3.001200
583.303000	3.074300
581.201317	3.164200
584.648917	2.915200
585.373500	2.883200
580.517283	3.148200
587.614417	2.688700
589.420150	2.495600
586.697417	2.612200
585.365733	2.673900
583.213200	2.799800
582.328600	2.810300
579.930350	2.898200
572.827850	3.268100
580.945450	2.748800
576.891983	2.969100
577.873617	2.912200
579.573683	2.795400
578.357700	2.788100
577.871467	2.802400
574.717217	2.906800
580.907233	2.500200
584.630183	2.240400
575.848800	2.727200
577.348267	2.469400
572.668750	2.707700
576.775183	2.429700
576.032250	2.449100
568.249750	2.868800
566.796133	2.907300
569.968517	2.670400
572.093000	2.496800
570.803250	2.485100
569.627550	2.600000
565.903017	2.716900
559.203250	3.024800
568.730317	2.419600
566.976450	2.472800
573.910467	2.031400
565.727150	2.524700
568.794517	2.257000
574.137533	1.822800
564.314683	2.362200
561.108800	2.552900
558.363583	2.701200
556.639200	2.668400
563.981683	2.222100
560.160267	2.397400
558.330933	2.482500
556.068200	2.595800
555.589117	2.608000
546.657933	3.058200
553.101733	2.653800
563.229983	1.974600
554.274883	2.493000
549.512650	2.759600
557.091433	2.331300
551.755933	2.583300
554.956633	2.347500
538.277567	3.261400
544.489183	2.910000
542.551983	3.028200
543.954583	2.934900
540.963050	3.063800
552.679867	2.287900
550.981650	2.355500
544.425000	2.744300
544.040983	2.705400
544.248083	2.593200
544.939433	2.541300
538.654867	2.882800
543.910683	2.547300
539.525950	2.654900
540.222817	2.611000
546.209117	2.168500
540.363667	2.482300
538.225183	2.559900
545.541017	2.109700
544.214133	2.184000
531.329567	2.930200
535.349783	2.603100
535.688750	2.525900
520.366733	3.438000
531.368217	2.766400
545.661567	1.940500
531.811050	2.763800
538.633350	2.191400
533.764050	2.446400
533.081150	2.485100
528.725933	2.749500
528.342800	2.708900
523.786533	2.892000
518.063583	3.203700
520.596917	3.029200
521.374850	2.968400
535.013100	2.164100
531.934333	2.319000
522.990133	2.675700
526.242350	2.464100
530.203583	2.208900
529.369567	2.262400
522.718300	2.570900
525.010400	2.397500
524.206767	2.398600
519.688450	2.671700
526.859100	2.216600
519.486750	2.615300
517.085033	2.673900
531.597550	1.814300
519.268283	2.514000
520.430233	2.433300
513.676067	2.752600
516.205583	2.508900
518.357667	2.332300
524.080133	1.944000
519.199300	2.233400
515.058783	2.452200
516.620217	2.317300
514.678067	2.293000
512.510683	2.408400
511.493033	2.394900
505.724067	2.739700
508.833950	2.531300
514.019667	2.207500
506.692783	2.572500
514.438967	2.089000
503.355050	2.689700
512.382400	2.119700
505.988533	2.481600
509.183833	2.270100
503.496867	2.476000
505.136233	2.341200
501.154000	2.548100
498.762967	2.646100
495.508233	2.830500
500.493500	2.527700
500.503850	2.415500
501.474400	2.271800
498.128400	2.453600
498.324933	2.433300
502.102517	2.137000
498.446583	2.241900
495.015450	2.421200
496.970050	2.214800
490.631750	2.619500
493.162533	2.466600
499.992083	2.036100
488.260350	2.669000
488.552917	2.625700
489.146950	2.548100
483.805383	2.841000
489.098600	2.526500
494.916450	2.162000
490.011767	2.277400
495.381967	1.942600
491.682283	2.124000
486.839817	2.416900
474.903850	3.011900
487.265383	2.229000
490.864233	1.972200
485.365333	2.278500
476.139283	2.796300
481.045017	2.487700
487.125733	2.071800
473.484550	2.783300
484.167717	2.152900
479.656983	2.365800
487.058867	1.922200
478.636283	2.404500
470.811133	2.828100
478.861567	2.226400
474.287267	2.479000
476.977367	2.330800
477.607867	2.236000
480.128700	1.969400
478.719933	2.031900
471.278417	2.426800
472.239450	2.363000
471.566350	2.385500
476.099483	2.116200
479.434300	1.813100
479.091950	1.769000
479.567967	1.712800
477.080133	1.856400
476.603167	1.848100
469.504567	2.223400
464.442333	2.390700
464.224267	2.423800
474.900017	1.768300
471.004983	2.009100
461.589733	2.533500
467.185917	2.168500
469.605750	2.015900
471.455183	1.880400
469.125300	1.999100
461.976233	2.373000
465.327350	2.159900
462.302250	2.289500
468.725400	1.879700
461.182783	2.277900
464.493367	2.067100
461.364667	2.232100
462.874167	2.094400
461.395283	2.044500
462.711783	1.951500
464.731950	1.802000
453.278433	2.458500
454.332467	2.262700
459.687183	1.902900
459.349950	1.897700
450.841100	2.385500
447.033200	2.608400
449.557717	2.459500
455.403283	2.076000
460.509183	1.731300
451.571117	2.226100
455.826550	1.943600
458.994100	1.715900
454.559050	1.947200
454.444583	1.930200
442.049850	2.618000
445.470867	2.381500
443.596833	2.490000
445.853167	2.335600
445.219017	2.155000
440.970500	2.370500
444.086933	2.109600
448.055033	1.833300
445.375217	1.982800
443.463750	2.082500
437.393350	2.289500
434.435733	2.423700
436.552417	2.288800
439.563667	2.119300
438.027083	2.192700
439.629900	2.073200
430.969817	2.458900
436.945617	2.069200
426.624133	2.694900
431.292167	2.409100
433.302067	2.183200
429.173700	2.378900
432.061233	2.141400
437.990017	1.764400
425.645300	2.490800
422.379900	2.690600
432.317483	2.071200
425.469133	2.357700
426.398983	2.316600
436.647117	1.672900
438.081383	1.521900
425.823883	2.085300
418.441583	2.500500
419.078517	2.419600
419.543567	2.377600
423.167150	2.153600
425.033733	2.044500
423.922317	1.992100
428.205400	1.673000
426.557550	1.773500
419.500917	2.175400
418.136600	2.214800
420.117283	2.076000
418.628283	2.026200
415.834367	2.144800
418.999500	1.936100
412.437867	2.317900
414.564683	2.044500
414.588567	2.030800
410.898700	2.230700
416.007717	1.886500
407.476100	2.373200
402.000117	2.666200
410.703967	2.124700
406.284900	2.376500
412.899883	1.964400
404.812533	2.390700
401.654233	2.568300
399.514067	2.725300
401.233400	2.615000
401.003533	2.525100
407.713167	2.069500
412.782517	1.708900
398.861517	2.523400
406.530033	2.065500
408.237783	1.944600
395.648083	2.593500
401.939167	2.172400
400.958883	2.166900
401.277783	2.118000
400.080050	2.149400
405.911250	1.820300
402.025100	1.962200
398.793017	2.051800
401.141933	1.890900
400.264017	1.903600
406.385083	1.441800
402.536817	1.567600
394.497600	2.019800
390.120433	2.250000
390.012967	2.273800
394.395233	2.003700
402.560250	1.489400
405.218367	1.260100
391.203167	2.087800
393.760533	1.888500
388.515367	2.205400
395.312633	1.675800
395.464383	1.609800
390.562650	1.824200
385.163800	2.151800
394.022417	1.627600
384.260933	2.189700
388.088267	1.855000
387.424200	1.844000
378.358717	2.338300
385.804200	1.866800
392.019417	1.478800
384.120650	1.927400
381.688317	1.939600
381.986267	1.909600
379.596167	2.038900
377.637217	2.140300
376.815400	2.191400
373.050200	2.279000
382.994450	1.658000
373.747567	2.175700
377.462350	1.959200
378.822867	1.860700
378.373033	1.883400
374.373283	2.057400
375.370867	1.988800
380.837050	1.636700
387.209533	1.237500
380.266183	1.472100
393.664150	0.616400
374.918033	1.659900
374.245083	1.651200
373.118967	1.630900
371.157233	1.722000
368.751000	1.867700
372.055017	1.663600
369.101500	1.673900
369.075933	1.664100
363.558000	1.986800
364.727683	1.916700
360.020783	2.113200
358.993083	2.083200
351.496367	2.550700
358.862250	2.058500
355.568050	2.251700
358.175617	2.106700
360.278767	1.971100
359.296600	1.901000
363.919283	1.583700
355.981150	2.020100
364.506700	1.530500
358.268467	1.872400
356.367283	1.983000
349.659250	2.201900
358.940383	1.651200
355.338850	1.834700
355.691683	1.813800
351.066883	2.040000
352.400517	1.921300
347.399633	2.198700
349.534767	2.032300
350.468267	1.981600
353.401483	1.796100
345.305167	2.205400
348.530250	1.931000
342.429617	2.268100
343.940967	2.113900
358.693283	1.206600
348.580117	1.777900
355.261150	1.358900
340.495633	2.118000
344.925433	1.818300
336.110183	2.288100
340.337200	2.069300
341.346317	2.002000
342.078417	1.933300
347.314283	1.478100
344.826833	1.587900
336.525933	2.062200
344.195333	1.594200
346.525633	1.294500
330.793200	2.240000
343.771167	1.475500
340.711133	1.642800
344.577367	1.312300
343.171883	1.325100
338.810383	1.536600
340.068917	1.422100
333.503683	1.776300
337.810933	1.489800
332.084200	1.833200
332.048917	1.822300
325.763617	2.142700
325.658550	2.036300
323.559483	2.151900
327.048400	1.930100
319.913183	2.348700
322.784067	2.041000
330.466433	1.570200
321.607817	2.064400
318.285683	2.241600
325.438467	1.779700
326.162800	1.742600
326.859383	1.565700
324.067417	1.690300
321.222633	1.815900
319.037900	1.951400
318.546883	1.961400
319.044133	1.927800
321.399083	1.731900
317.660617	1.954300
310.249883	2.373900
315.333333	2.048700
316.819600	1.861400
317.458317	1.765600
328.288967	0.985000
319.155583	1.545300
316.110750	1.724600
321.479867	1.420000
313.510067	1.841200
313.309317	1.726300
311.266717	1.837000
319.643750	1.286000
308.521333	1.935600
310.107067	1.838200
309.174517	1.871500
306.838933	1.888200
306.060000	1.914500
293.680067	2.632000
302.873917	2.102200
308.978783	1.626300
305.400017	1.786000
297.960033	2.146800
297.583950	2.157200
304.080783	1.762800
308.329817	1.493800
308.413467	1.396600
297.759183	1.965600
306.731967	1.352200
298.432950	1.855700
293.024017	2.145400
296.670967	1.939000
292.403550	2.165600
296.589150	1.824200
300.369767	1.569700
295.321650	1.851200
295.723933	1.789800
291.985350	1.897100
295.190833	1.676700
293.360950	1.708100
299.441767	1.358500
293.547267	1.705000
291.264883	1.825200
291.299700	1.754900
294.286500	1.588700
296.759867	1.402000
293.172983	1.585800
300.951433	1.098600
301.589250	1.050200
282.948567	1.963600
285.680933	1.798800
281.427983	2.043300
290.025000	1.511600
284.689633	1.619700
294.418583	1.062600
286.520617	1.493800
284.802767	1.557100
289.713983	1.100400
287.476500	1.218500
280.049200	1.611200
281.891667	1.483300
281.606450	1.492400
280.358150	1.491800
279.412283	1.527000
274.420667	1.839100
280.046200	1.455500
275.514750	1.682600
279.842650	1.415900
287.666150	0.944000
285.300150	1.054700
270.935617	1.776400
279.142900	1.293800
275.875167	1.474600
277.378733	1.365600
272.707967	1.642000
274.606017	1.536100
273.188483	1.571400
273.827900	1.537700
277.943200	1.182500
276.977050	1.182800
264.668250	1.845200
268.511967	1.636000
281.478850	0.753500
272.590317	1.183000
267.875633	1.410300
266.743950	1.463300
265.277483	1.542600
261.974600	1.721600
260.126300	1.834700
253.395933	2.116200
258.268850	1.824200
254.483183	2.060700
258.685250	1.824200
262.629383	1.524000
259.495133	1.676700
260.336467	1.577200
256.117617	1.820500
256.713917	1.767100
257.679250	1.697600
259.210433	1.488000
258.195483	1.512000
259.158483	1.415100
248.508833	2.025300
249.573767	1.954300
252.521817	1.744900
248.006883	1.853100
249.727617	1.743400
257.347950	1.285100
254.037183	1.476000
259.600733	1.098900
247.981350	1.745900
252.750933	1.419000
252.663583	1.371300
251.688900	1.420400
251.525367	1.417000
243.594350	1.806800
235.683500	2.198000
240.144883	1.915200
245.060867	1.620100
246.233100	1.509500
248.254417	1.323400
250.536100	1.145600
237.437350	1.855700
242.151700	1.565000
239.413467	1.725100
243.746750	1.449800
239.050300	1.551500
243.150517	1.306300
239.095950	1.491200
240.568100	1.429400
238.285983	1.436100
241.954617	1.177600
239.782567	1.250800
240.889700	1.151000
238.451633	1.284000
231.682117	1.695100
236.748533	1.302000
240.173117	1.037500
241.097400	0.922100
228.088533	1.671600
226.471783	1.792800
218.319867	2.284600
220.210167	2.138200
223.934433	1.893000
219.109100	2.180000
221.996250	1.994900
227.971017	1.624900
233.537200	1.257200
228.663517	1.491400
228.333733	1.381800
227.011900	1.444400
225.774750	1.517900
230.720067	1.206100
236.361283	0.765900
226.287217	1.342600
226.751150	1.263800
227.676083	1.185000
224.882017	1.310200
228.425467	1.083700
224.390233	1.216500
221.224917	1.324000
208.265617	2.041900
216.483500	1.572500
215.005417	1.677400
219.056233	1.389600
214.507617	1.550800
214.898100	1.485800
226.515817	0.733300
220.031783	1.124700
224.529083	0.808500
216.097350	1.276100
213.421933	1.366500
206.680083	1.648200
208.969533	1.506600
210.877883	1.382700
204.052650	1.753400
210.104033	1.272000
208.825083	1.324500
198.924500	1.855700
200.679683	1.729800
202.906833	1.590000
195.162283	2.018700
206.503683	1.234800
205.676517	1.245400
192.506083	1.973700
200.640783	1.498500
199.922817	1.521400
201.404833	1.423800
190.415350	1.936100
202.316100	1.247900
198.402850	1.471100
202.094000	1.237400
196.271600	1.498400
196.868317	1.375600
188.864100	1.834700
195.865967	1.409200
198.766067	1.242700
197.262567	1.318600
193.495033	1.482900
191.911300	1.464500
205.871050	0.608900
196.099917	1.130200
186.614383	1.691100
192.761467	1.320100
194.023150	1.255400
186.460933	1.640700
187.756067	1.564900
183.961417	1.784800
185.565117	1.688800
189.820933	1.391700
188.272800	1.466300
188.750400	1.441400
190.248733	1.329300
186.528333	1.496100
189.206733	1.336500
184.671533	1.443300
186.189317	1.320100
192.359850	0.880100
191.444733	0.928500
183.191783	1.407900
190.292117	0.967300
189.156383	0.827700
184.022767	1.168000
182.471683	1.248000
177.840550	1.526600
185.211783	1.038300
180.720833	1.241100
180.951867	1.206100
179.877867	1.198300
177.172167	1.352200
178.555950	1.238600
176.488417	1.321600
177.484500	1.144700
174.553567	1.282300
172.687600	1.339400
165.077250	1.775000
177.944717	1.014100
175.913383	1.123800
174.764783	1.104600
170.736600	1.319000
170.588067	1.325200
170.881283	1.298400
172.707883	1.068300
172.301917	1.025800
172.063783	0.950100
168.301767	1.157200
163.107567	1.472800
164.520583	1.357800
165.653667	1.198900
164.159250	1.216400
162.462050	1.281800
168.763483	0.869700
163.609967	1.152100
155.527950	1.627400
160.311033	1.324800
162.947100	1.115300
162.847700	1.111700
157.230483	1.446600
156.339517	1.482400
154.919317	1.426900
165.494617	0.773800
166.145133	0.654600
159.829667	1.017100
159.694617	1.028800
161.869683	0.869700
157.712000	0.976400
149.010633	1.467000
163.021900	0.638900
156.031483	1.029600
153.167333	1.165800
152.888950	1.165100
151.437183	1.100400
145.986300	1.423400
152.077217	1.027000
142.214667	1.588600
149.782250	1.073300
144.569517	1.272100
137.464617	1.687900
138.814050	1.550000
137.782783	1.598700
146.429217	1.084300
139.996883	1.433100
137.221867	1.507600
131.827200	1.808900
139.846767	1.288300
134.682633	1.584600
130.900017	1.785400
130.715233	1.789800
141.807950	0.999200
137.229883	1.272000
133.257533	1.485600
135.956483	1.326600
133.770600	1.378100
136.070067	1.231900
143.196517	0.691300
133.271817	1.265800
122.794950	1.876700
131.064700	1.388600
130.868783	1.294500
129.979567	1.297000
134.127667	1.027900
126.196000	1.421000
127.418833	1.354800
122.674517	1.616500
120.012383	1.731300
117.744300	1.769900
125.578050	1.290800
132.716217	0.815500
129.038183	1.002000
128.464483	1.024500
133.316633	0.716700
114.516417	1.713100
125.818667	1.022200
117.390200	1.479200
128.114917	0.865900
124.364317	0.988300
122.416450	1.045700
119.519583	1.148700
118.076050	1.244000
126.925467	0.733300
113.715467	1.494100
110.645400	1.580900
120.789767	0.906700
117.508933	1.089900
115.079183	1.173900
115.020767	1.158100
114.099800	1.218200
114.880900	1.117400
111.002350	1.262000
119.100383	0.742500
116.661583	0.893100
112.593583	1.087500
115.185417	0.818500
110.860367	1.052500
110.458517	1.016500
105.505150	1.297100
113.753550	0.815900
108.303017	1.143100
103.034600	1.322000
108.987150	0.940700
106.130800	1.045400
105.642500	1.071800
98.493983	1.502100
98.922583	1.465500
103.979200	1.143800
98.715867	1.436800
103.497183	1.159200
111.224250	0.703100
104.721767	1.049500
104.605767	0.995500
93.201200	1.562000
101.490917	1.025800
95.524833	1.350000
97.781817	1.201000
94.892133	1.334700
101.931067	0.799000
95.166683	1.168200
96.461300	1.053200
86.801483	1.652700
89.925883	1.449900
90.339550	1.391900
94.173750	1.051100
91.722567	1.186000
90.663200	1.257800
91.255700	1.187000
92.570650	0.955400
87.003450	1.262000
90.184217	1.045000
89.250667	1.061800
92.060967	0.895900
91.343917	0.925900
83.745450	1.242800
73.697467	1.825900
80.980200	1.367900
78.474267	1.525900
84.781217	1.056400
89.712883	0.686100
78.134117	1.309300
83.321850	0.976700
85.318333	0.827700
82.325433	1.001400
79.395467	1.139500
81.771050	0.902300
79.766467	0.996400
76.308017	1.157500
79.719133	0.948300
82.706800	0.778700
80.952250	0.852200
80.951467	0.724000
71.030950	1.285400
81.590683	0.574800
75.473567	0.934600
74.702667	0.982600
68.983550	1.297700
81.284183	0.483600
81.030083	0.501900
67.584833	1.270200
73.706767	0.907300
75.864717	0.712300
75.751767	0.677500
77.616033	0.562800
78.382417	0.485800
65.780017	1.079500
66.028967	1.044100
69.054733	0.823500
65.537283	0.989400
69.458450	0.694100
70.590117	0.593800
64.026300	0.953600
65.758383	0.834000
64.230083	0.897300
59.157067	1.079500
59.793783	0.999900
54.708717	1.267300
58.976450	1.013000
59.800350	0.941900
66.384633	0.549300
57.349050	0.962600
60.518400	0.748100
