#Y dist(nm)	Y force(pN)
3504.811950	20.498200
3516.387433	19.852100
3521.684200	19.594300
3524.131900	19.655500
3523.509517	19.738200
3521.015767	19.896900
3520.781567	19.922100
3529.010583	19.459100
3528.047433	19.529300
3529.384067	19.477500
3527.312533	19.606400
3534.461817	19.452300
3531.679750	19.714900
3532.818417	19.667100
3537.702383	19.398500
3537.595433	19.418600
3539.227667	19.335600
3531.259133	19.825100
3529.850583	19.906400
3546.748567	19.223700
3538.887317	19.710900
3541.362067	19.589700
3535.177817	20.001600
3535.230183	20.117900
3532.710267	20.415300
3544.758250	19.716400
3538.146783	20.141000
3542.237267	19.915800
3543.776150	19.822900
3544.741917	19.833000
3551.492667	19.589700
3548.725550	19.746400
3551.265550	19.600900
3544.586250	20.000200
3555.160083	19.381700
3551.491167	19.596600
3546.156100	19.919500
3544.811517	20.037900
3546.960733	20.196800
3547.557583	20.218100
3553.890133	19.859600
3551.505033	20.010200
3546.601983	20.287700
3556.934017	19.704000
3552.165933	20.001800
3550.973483	20.080100
3561.607500	19.777900
3554.559400	20.234200
3560.969650	19.870300
3553.789017	20.318100
3553.859333	20.446100
3558.063967	20.304900
3554.321100	20.548900
3562.191883	20.090000
3561.633583	20.138900
3557.679033	20.384600
3558.501533	20.429000
3556.300200	20.732500
3558.841667	20.604000
3570.268133	19.919000
3566.336817	20.155500
3562.635950	20.408200
3564.075183	20.324000
3571.680083	19.856600
3571.627367	19.909800
3573.451250	19.947700
3561.775133	20.678300
3565.522817	20.481600
3566.427383	20.444000
3568.430933	20.383700
3567.529167	20.440500
3567.374383	20.481800
3569.221167	20.381100
3576.016733	20.079500
3578.042883	20.028500
3574.192967	20.271300
3570.166033	20.526800
3569.882300	20.569900
3570.114900	20.568100
3573.184717	20.427900
3581.099767	19.972500
3578.701950	20.130700
3585.109000	19.780000
3583.558767	20.062500
3592.085200	19.951600
3588.543567	20.190900
3586.255717	20.348400
3585.560433	20.425100
3581.714733	20.864300
3591.389967	20.332800
3588.334817	20.524800
3590.180200	20.445700
3589.356717	20.502300
3592.040283	20.365700
3595.164883	20.204000
3585.240617	20.810400
3592.312217	20.402700
3596.022717	20.197500
3586.051067	20.459700
3592.774283	20.069600
3578.509033	20.944700
3588.669067	20.346600
3588.658033	20.179700
3586.772850	20.299000
3588.572250	20.168800
3595.649167	19.749000
3576.542733	20.667800
3590.113500	19.887400
3580.898233	20.444000
3581.628083	20.412500
3588.251417	20.001300
3589.941783	19.864400
3586.255750	20.082100
3581.072233	20.400800
3581.202283	20.385800
3587.153550	19.970800
3579.994350	20.389600
3584.665467	20.133000
3578.483000	20.522200
3569.421617	21.030300
3583.280717	20.208300
3587.123783	19.973300
3584.989783	20.088800
3574.623333	20.416700
3578.348667	20.149500
3578.790117	20.088600
3582.538083	19.865000
3580.868650	19.928500
3588.307067	19.497300
3581.759067	19.879800
3585.920567	19.609500
3571.799633	20.270900
3579.917100	19.707700
3585.052733	19.402700
3583.494967	19.505100
3572.602617	20.147100
3579.535117	19.738800
3578.208683	19.820600
3575.368233	20.005400
3567.959133	20.342600
3565.547383	20.263700
3565.359100	20.272900
3571.234817	19.921500
3573.666200	19.749400
3563.054967	20.261700
3563.035017	20.277000
3574.707800	19.613500
3565.743533	20.158100
3568.316583	20.015900
3566.730933	20.108300
3561.926350	20.238100
3573.157633	19.541900
3560.448233	20.306600
3561.042533	20.252600
3554.003433	20.666000
3563.511283	20.118800
3572.332217	19.596600
3567.448783	19.890500
3564.112483	19.858100
3556.185500	20.254000
3549.970417	20.645400
3567.815333	19.606100
3566.964717	19.699200
3569.062983	19.532900
3568.921683	19.520900
3572.010033	19.323800
3561.396317	19.667700
3552.708350	20.158900
3557.683967	19.864800
3558.162700	19.841800
3561.349717	19.656300
3554.368067	19.939800
3556.059033	19.823000
3552.170550	20.075200
3560.680450	19.570900
3559.511900	19.622500
3557.709017	19.740300
3556.082917	19.650000
3550.758667	19.935600
3547.620667	20.135700
3544.255283	20.354000
3552.359983	19.889300
3548.240350	20.138500
3565.201433	19.134800
3554.508550	19.780000
3554.705917	19.649400
3549.051900	19.981600
3551.152117	19.827600
3544.459517	20.232900
3552.860483	19.606400
3548.092783	19.846100
3551.678883	19.610000
3556.822167	19.284300
3544.992017	19.995600
3550.848033	19.610000
3543.527150	19.946200
3538.630933	20.139200
3542.641667	19.906200
3548.357750	19.545100
3537.462433	20.127200
3542.946600	19.715500
3540.240100	19.880800
3543.585800	19.668400
3540.717017	19.832100
3554.038167	19.013400
3548.331233	19.338800
3544.155500	19.459000
3530.548967	20.278800
3534.844450	20.040100
3543.168617	19.547100
3540.788450	19.507900
3546.155817	19.146000
3538.563600	19.604800
3541.919733	19.411100
3527.931900	20.257600
3536.578933	19.739900
3537.259367	19.553700
3536.204483	19.586300
3540.444183	19.318100
3536.708183	19.540100
3538.872033	19.415000
3533.569850	19.734400
3538.854033	19.295300
3533.474233	19.530800
3535.095200	19.434700
3531.757017	19.645200
3526.401333	19.988600
3525.671967	20.045400
3532.331683	19.655600
3533.495883	19.603700
3534.134633	19.497500
3527.200250	19.646200
3529.773033	19.462400
3529.955117	19.449900
3533.220817	19.231200
3528.608083	19.504700
3528.586100	19.497100
3530.370050	19.379800
3536.896750	19.005100
3527.442633	19.404200
3524.534350	19.541200
3529.568200	19.248100
3521.934467	19.697700
3524.902417	19.536600
3521.534333	19.712000
3527.103333	19.216700
3518.483617	19.655400
3524.191217	19.262100
3519.423817	19.527000
3518.833817	19.563600
3514.661383	19.793000
3517.900717	19.455300
3509.514350	19.955200
3508.973833	19.990700
3509.312017	19.981800
3507.650083	20.087300
3517.070317	19.515600
3515.745733	19.593500
3522.712800	19.171000
3518.054083	19.438700
3519.362350	19.342000
3529.094000	18.694600
3518.766083	19.122800
3519.758683	19.045700
3513.093300	19.442500
3508.671717	19.700100
3510.357867	19.606500
3510.687583	19.590800
3515.988167	19.263300
3518.232200	19.111000
3517.889850	19.126000
3521.207850	18.914800
3518.543733	18.678200
3508.980033	19.244600
3506.729717	19.383300
3509.959967	19.157700
3504.694983	19.352000
3501.462400	19.471000
3510.997467	18.900600
3508.758117	19.052100
3504.429667	19.329600
3508.234083	19.097600
3510.848100	18.937300
3516.707083	18.576200
3510.431917	18.866100
3508.429533	18.745700
3498.421833	19.356800
3498.813183	19.312400
3499.802483	19.247300
3499.806017	19.252500
3503.276900	19.023400
3506.612033	18.822500
3501.564117	19.116600
3504.541767	18.658200
3504.724167	18.592500
3490.604333	19.425200
3502.055583	18.743300
3499.387283	18.900500
3494.583800	19.199200
3490.134817	19.290900
3492.812050	19.085500
3492.426900	19.098700
3490.850517	19.170000
3489.978717	19.225500
3484.490117	19.551000
3501.081267	18.461400
3489.974700	19.096300
3500.823583	18.458600
3487.946617	19.232100
3490.316567	18.984300
3482.834983	19.369400
3488.467600	19.024900
3483.188300	19.342600
3484.737967	19.274400
3479.836700	19.584400
3484.710600	19.283800
3478.086033	19.673600
3489.529817	19.016400
3484.254167	19.328700
3491.188317	18.861600
3484.542983	18.923000
3484.190967	18.935100
3486.482250	18.801400
3486.243200	18.793600
3487.482517	18.563400
3479.159967	19.042200
3487.529167	18.541500
3481.460633	18.906800
3481.749167	18.886500
3482.911867	18.813900
3475.235033	19.217300
3480.309867	18.886200
3473.922283	19.278200
3468.254267	19.599000
3474.133367	19.236300
3477.211433	19.050200
3481.047600	18.802300
3473.744233	19.255100
3469.801750	19.395700
3480.562867	18.691500
3477.746000	18.845800
3471.408067	19.213200
3477.116867	18.864900
3479.111750	18.712600
3479.691417	18.645000
3473.105633	19.043000
3473.001450	19.017400
3473.604717	18.974100
3475.632200	18.811900
3470.134683	18.912500
3465.966633	19.115000
3465.264000	19.021900
3460.713800	19.286200
3461.927183	19.214900
3471.602783	18.621500
3470.297467	18.557100
3458.543050	19.237600
3466.791433	18.716900
3468.606433	18.587300
3465.776367	18.734100
3456.979267	19.248900
3465.548183	18.749900
3475.724133	18.135500
3474.414867	18.184200
3459.814117	19.066800
3460.955050	18.782800
3458.390433	18.831200
3453.168133	19.136900
3461.413900	18.650200
3455.100850	19.025200
3454.303033	19.076000
3461.747917	18.626400
3461.306600	18.652300
3461.562883	18.513800
3457.237667	18.687900
3458.429383	18.587300
3460.147367	18.448800
3465.737583	18.113000
3456.922767	18.632700
3457.284267	18.592200
3448.653500	19.102000
3453.359650	18.814600
3446.496083	18.947900
3443.033483	19.111100
3442.517033	19.133600
3442.477233	19.143200
3442.699000	19.129000
3440.636917	19.245300
3456.725333	18.209600
3447.674533	18.731000
3448.274467	18.687300
3446.434617	18.789900
3447.266550	18.616600
3453.077633	18.226400
3439.475700	19.015300
3438.636500	19.067200
3439.593617	19.012500
3443.936850	18.770500
3448.208900	18.362500
3437.335667	18.900000
3431.584717	19.227900
3430.980433	19.259300
3436.719350	18.928900
3441.147267	18.657000
3438.752267	18.736500
3431.060483	19.036700
3433.571883	18.891500
3436.907750	18.681100
3438.521133	18.575300
3434.986000	18.738100
3445.405300	18.114400
3442.155200	18.303400
3438.573383	18.503300
3424.970317	19.294800
3427.573833	19.123100
3436.012033	18.596300
3433.622033	18.756500
3433.439467	18.782400
3440.245283	18.376700
3431.221267	18.512100
3428.107350	18.693400
3429.743867	18.573300
3430.488650	18.543100
3431.573567	18.354900
3426.894583	18.612800
3428.698967	18.461400
3433.428283	18.147200
3424.364633	18.684500
3421.261433	18.868400
3415.281017	19.198500
3416.088317	19.112400
3414.705617	19.184400
3413.823033	19.240400
3421.266583	18.745400
3419.671167	18.822000
3422.144633	18.657500
3421.128867	18.667200
3426.020433	18.350600
3417.758017	18.819000
3419.985133	18.677300
3422.987700	18.315100
3421.283367	18.359700
3416.509983	18.580700
3415.546017	18.614100
3420.976150	18.271000
3413.433983	18.718700
3413.837383	18.511700
3411.572333	18.645500
3414.292883	18.484100
3408.992933	18.804800
3404.987183	18.920300
3406.695200	18.771400
3411.815967	18.408900
3403.812583	18.876800
3412.554967	18.349500
3400.683267	19.058100
3407.265300	18.608200
3408.872967	18.433800
3403.578967	18.723600
3400.111417	18.914400
3407.997183	18.432200
3406.621433	18.513800
3410.002000	18.275800
3411.545533	18.055100
3408.882567	18.180600
3405.073683	18.430700
3406.201650	18.325900
3396.312567	18.787200
3396.605367	18.750300
3396.144567	18.759000
3396.882683	18.722300
3392.797117	18.963600
3394.297867	18.913200
3391.746483	18.966800
3398.476833	18.528800
3400.032900	18.367000
3398.349567	18.467400
3405.696150	17.999800
3399.990650	18.328300
3386.559883	18.980600
3393.611600	18.547900
3392.428300	18.639700
3389.305800	18.802300
3385.415317	19.027800
3394.243133	18.463700
3391.438533	18.617900
3393.193667	18.504600
3393.680633	18.480800
3394.507000	18.401200
3389.085350	18.668800
3389.046433	18.520400
3392.193283	18.272600
3392.925450	18.177400
3385.322750	18.645700
3387.683850	18.473500
3393.855333	18.076100
3390.778550	18.132700
3384.340600	18.509500
3381.621867	18.624000
3384.492417	18.440400
3386.570317	18.324300
3382.185850	18.574000
3384.964050	18.225400
3388.612267	17.999100
3394.786433	17.590700
3393.082967	17.691900
3374.226150	18.683800
3370.781817	18.850200
3373.671050	18.629200
3377.590150	18.431800
3394.896717	17.375700
3390.954967	17.610300
3378.789217	18.308100
3379.887700	18.151000
3378.741150	18.208000
3372.575667	18.520800
3373.603050	18.460300
3379.572150	18.097900
3381.458550	17.989300
3379.508983	17.932700
3373.305983	18.269600
3384.038000	17.670100
3376.124883	18.125000
3379.362317	17.853600
3370.780800	18.347200
3376.321433	17.934800
3374.246717	18.047700
3371.652017	18.167700
3374.342617	17.990700
3375.743017	17.802300
3368.360450	18.172300
3367.471133	18.189500
3366.840533	18.200300
3368.182767	18.112200
3372.918617	17.811600
3363.044450	18.304000
3362.089233	18.302900
3357.598233	18.551300
3370.754683	17.764700
3363.659483	18.175700
3356.210000	18.508900
3356.352467	18.494400
3358.955517	18.278400
3362.263467	18.085800
3365.672067	17.891700
3364.362050	17.955100
3369.589633	17.552300
3363.917867	17.904300
3358.514133	18.209600
3355.057750	18.431800
3354.170250	18.314500
3355.827150	18.217000
3361.724317	17.824500
3354.819400	18.222100
3359.831033	17.907800
3353.436950	18.249700
3359.456283	17.900600
3358.892767	17.940000
3355.493817	18.091800
3355.941017	17.939100
3355.728817	17.955600
3352.495367	18.161700
3355.398717	17.954100
3357.814467	17.658600
3351.219333	18.018800
3346.592800	18.276400
3354.494383	17.792300
3341.611367	18.563100
3349.683300	18.081100
3352.870533	17.743700
3347.940767	18.017100
3354.487567	17.556600
3348.241483	17.903300
3353.008867	17.617800
3352.263350	17.658400
3349.097367	17.658900
3357.050717	17.192700
3353.558950	17.359900
3351.074367	17.537700
3350.735683	17.520800
3341.459433	18.046400
3341.986583	17.996600
3351.175383	17.387900
3347.290833	17.597900
3343.292833	17.828300
3339.815600	18.002800
3341.229083	17.765600
3341.272933	17.751800
3340.538700	17.791900
3339.023050	17.852200
3333.290683	18.078800
3329.683900	18.286900
3328.760117	18.282000
3329.759700	18.243700
3330.640800	18.191800
3338.895900	17.695600
3337.226633	17.664800
3336.156850	17.715100
3331.024383	17.969900
3338.119917	17.500800
3337.393367	17.523300
3344.425233	17.096900
3333.488867	17.621400
3329.368683	17.796800
3331.301567	17.648400
3328.537467	17.800500
3328.436717	17.808000
3329.511750	17.743900
3329.168983	17.743700
3329.278650	17.722900
3322.635183	18.116000
3316.377683	18.491000
3329.793983	17.660900
3324.360183	17.915900
3322.789450	18.000700
3327.576033	17.705300
3328.403500	17.644000
3322.788900	17.774800
3317.726767	18.066300
3316.719000	18.071500
3322.861433	17.696600
3311.732850	18.319000
3319.841450	17.849500
3325.880433	17.468900
3329.883500	17.225800
3317.606417	17.792700
3312.215600	18.097300
3318.395367	17.750700
3315.295033	17.936300
3313.571167	17.928600
3317.551750	17.620900
3315.660383	17.653700
3317.817100	17.533000
3306.207283	18.220100
3313.077117	17.818200
3312.286350	17.784400
3307.346150	18.020200
3309.611617	17.859000
3308.347533	17.905400
3305.431617	18.060300
3303.201067	18.202800
3305.991750	18.031300
3306.725300	17.878300
3303.973083	18.041000
3307.619133	17.825000
3305.346967	17.961900
3310.429000	17.512600
3307.028367	17.700900
3309.573433	17.480600
3310.343733	17.411000
3304.665933	17.753300
3308.923867	17.486700
3309.564883	17.321900
3309.454100	17.283700
3299.596650	17.807500
3300.199900	17.744800
3297.889550	17.890300
3299.733983	17.772800
3294.904050	18.010300
3289.254500	18.332200
3306.777867	17.302200
3297.992650	17.822200
3293.424517	18.061800
3300.598483	17.557400
3296.400950	17.776000
3299.901867	17.546100
3302.439850	17.376100
3305.443200	17.159200
3304.333300	17.138800
3288.033917	17.995200
3293.177433	17.643200
3285.084800	18.061000
3289.501017	17.791500
3293.275083	17.558000
3285.581883	18.018200
3292.159200	17.473600
3294.944817	17.292600
3294.828933	17.307500
3296.272967	17.205600
3286.539733	17.721800
3295.410050	17.167000
3275.436733	18.289400
3286.675267	17.609700
3281.422283	17.941100
3285.122000	17.706100
3279.098683	17.953100
3278.959083	17.895500
3295.387867	16.919400
3283.713067	17.551800
3278.938817	17.827500
3277.685633	17.905400
3278.282633	17.822300
3277.851767	17.741100
3272.791817	18.029100
3278.922483	17.664800
3277.042800	17.711800
3278.093233	17.541500
3277.553217	17.547300
3279.482067	17.389800
3279.640067	17.374500
3275.283917	17.628900
3280.347700	17.347900
3277.740200	17.441200
3273.037417	17.691900
3281.780600	17.108200
3276.128017	17.441400
3274.038383	17.563700
3285.079783	16.891400
3281.891517	16.998900
3273.865717	17.435700
3274.128683	17.318000
3279.745883	17.022500
3278.097233	17.102600
3270.933850	17.515300
3277.946533	17.046200
3275.491067	17.040300
3269.201550	17.405200
3269.202750	17.409400
3265.125200	17.623000
3267.441167	17.421000
3270.792067	17.189700
3259.374133	17.854700
3270.450800	17.166700
3265.894317	17.417400
3272.412967	17.009700
3265.833200	17.241100
3269.580350	17.001700
3262.117467	17.439900
3259.331683	17.618000
3258.887817	17.529900
3253.441467	17.790000
3256.942267	17.529900
3260.212567	17.329800
3260.195800	17.349400
3268.204750	16.868800
3259.182200	17.310400
3260.092800	17.162800
3260.727450	17.078500
3265.917267	16.711800
3265.513650	16.730500
3263.598733	16.821200
3261.912667	16.875600
3251.642567	17.344500
3249.476883	17.468300
3249.589650	17.455000
3256.574783	17.042000
3252.874617	17.241300
3249.171900	17.433400
3247.288083	17.468300
3245.975350	17.578300
3249.517517	17.367300
3243.204000	17.737600
3248.189083	17.282300
3250.950917	17.119500
3250.071267	17.169600
3241.818267	17.645400
3253.841200	16.786000
3250.012900	16.983700
3246.754717	17.128500
3240.573000	17.508400
3245.872817	17.152200
3252.938300	16.748200
3249.618600	16.944700
3251.149833	16.840100
3251.346933	16.688600
3244.764867	17.057700
3236.557767	17.538300
3241.729917	17.246400
3244.579000	17.032600
3241.531100	17.097700
3243.480867	16.958700
3243.322517	16.919400
3242.395017	16.969800
3233.981617	17.490300
3238.326750	17.212300
3236.579317	17.180400
3239.420933	16.984700
3241.744800	16.793500
3246.990850	16.483300
3241.836117	16.760700
3244.096600	16.632100
3240.726933	16.679000
3235.415217	16.990500
3241.586800	16.589500
3225.121983	17.590700
3241.663083	16.578800
3235.949183	16.886000
3228.613750	17.228800
3240.374117	16.512900
3234.821567	16.838700
3228.006650	17.238100
3237.432433	16.615100
3239.262167	16.481700
3237.054850	16.581100
3230.718667	16.954800
3230.371367	16.905600
3228.904000	16.947700
3228.218283	16.946600
3228.088217	16.908900
3228.620767	16.855800
3215.169517	17.655600
3222.521683	17.164700
3223.200867	17.008800
3225.094150	16.861300
3225.651433	16.774100
3228.199100	16.611100
3233.354167	16.269000
3227.121883	16.618400
3223.193133	16.673900
3218.841683	16.908200
3228.238667	16.338900
3225.992950	16.476700
3219.206867	16.764600
3217.233133	16.859600
3218.812683	16.709600
3211.371517	17.147100
3212.462483	17.102900
3222.124767	16.518600
3217.159083	16.699100
3206.541400	17.260600
3227.292583	16.006700
3218.119150	16.528600
3210.955100	16.959700
3210.741617	16.958400
3209.456367	17.019000
3206.495917	17.131500
3208.800533	16.971800
3210.457883	16.872800
3203.724200	17.248000
3206.014867	17.048700
3208.784200	16.873600
3212.154433	16.640600
3204.440933	17.088500
3205.211533	17.058800
3216.256583	16.390100
3213.910050	16.333000
3202.068550	17.030800
3211.654867	16.473000
3206.548150	16.732000
3210.846750	16.387000
3210.722567	16.386000
3201.578217	16.877400
3201.387367	16.858800
3197.438600	17.074600
3198.832383	16.972400
3200.736067	16.833600
3207.549217	16.415100
3206.624767	16.294200
3194.868200	16.956700
3200.973650	16.567900
3203.427817	16.417800
3203.801233	16.299800
3198.600533	16.522700
3196.592967	16.605600
3194.642200	16.662700
3193.619650	16.698400
3191.832383	16.787000
3193.264483	16.708700
3192.949717	16.586100
3194.661333	16.434200
3185.117967	16.928700
3192.350767	16.505400
3192.274917	16.514100
3194.411067	16.376100
3179.896700	17.087200
3186.762967	16.692900
3183.985417	16.854300
3191.240367	16.423200
3190.838550	16.341700
3181.032833	16.865300
3191.488583	16.158800
3185.177533	16.547900
3188.937733	16.331900
3188.534033	16.352900
3186.872650	16.425400
3185.164283	16.395500
3185.741383	16.338200
3182.492917	16.502400
3175.359600	16.927900
3172.090450	17.139700
3182.029383	16.541000
3180.526850	16.488700
3174.892933	16.818800
3173.005533	16.883300
3175.293650	16.771600
3178.232117	16.574400
3172.241883	16.912100
3170.983333	17.001500
3172.201100	16.955800
3187.657433	16.029200
3176.297733	16.708100
3169.569083	16.872200
3168.099117	16.888500
3175.148983	16.394900
3172.764850	16.537600
3175.386233	16.352900
3171.279000	16.621600
3179.382817	16.037400
3169.207050	16.578700
3165.821350	16.750600
3168.180867	16.594800
3166.641900	16.670200
3173.575917	16.262400
3163.594983	16.831400
3168.004933	16.423100
3166.858283	16.481000
3162.754217	16.724100
3162.061800	16.755700
3166.337900	16.447300
3162.456717	16.668300
3159.332600	16.816000
3172.458900	16.020700
3161.258800	16.722700
3169.088183	16.247300
3172.347517	15.911700
3157.523817	16.740300
3168.271167	16.026000
3165.820000	16.154200
3162.429967	16.328400
3160.782083	16.429400
3156.996650	16.550800
3159.308617	16.340100
3156.650450	16.478800
3154.914317	16.576500
3152.940267	16.708200
3158.750000	16.359100
3155.822017	16.487700
3147.337200	16.893100
3152.821467	16.540800
3151.603633	16.625600
3146.688833	16.911500
3151.501850	16.482100
3150.075517	16.537200
3153.801883	16.242800
3153.668750	16.246000
3156.473250	16.062700
3153.792733	16.241300
3153.038583	16.115600
3140.856900	16.789000
3146.942983	16.402700
3146.115967	16.448400
3151.048033	16.151000
3151.404450	16.120300
3136.674717	16.887900
3132.454483	17.143400
3134.240283	17.013800
3137.346133	16.847900
3145.449000	16.299400
3137.370700	16.668700
3140.396100	16.468300
3139.516167	16.497000
3145.532650	16.149400
3134.862517	16.794300
3133.160383	16.869500
3137.655317	16.464000
3135.323083	16.574900
3136.419550	16.478800
3135.455400	16.553500
3140.460533	16.245500
3129.386967	16.905600
3130.381583	16.694900
3129.353800	16.762000
3136.954450	16.303900
3141.452350	16.030000
3132.643133	16.406000
3128.029750	16.621900
3131.992417	16.358100
3134.831267	16.181400
3123.275167	16.838100
3132.594483	16.293200
3134.066783	16.150400
3134.015167	16.110000
3133.535250	16.141300
3133.613433	16.104800
3129.526217	16.322100
3131.180550	16.230100
3132.314500	16.111600
3131.169183	16.024700
3132.114883	15.932000
3132.077867	15.912300
3137.067633	15.590900
3131.498550	15.768400
3131.171917	15.757800
3125.746600	15.990400
3123.258700	16.129600
3125.542850	15.992200
3130.379867	15.680100
3129.888117	15.533400
3130.680833	15.472400
3128.147950	15.601600
3123.379300	15.874900
3124.306017	15.699300
3126.083267	15.532800
3120.746033	15.765500
3119.675967	15.841500
3114.293283	16.160600
3118.062167	15.956100
3108.632483	16.402100
3110.747283	16.234400
3113.960133	16.058300
3113.420000	16.088200
3097.873583	17.013800
3108.524633	16.380200
3114.097817	16.013700
3107.993933	16.250000
3108.257467	16.207500
3104.639867	16.362000
3108.842800	16.116100
3112.679183	15.884600
3114.000667	15.806700
3103.717583	16.268000
3106.191333	16.106000
3108.639867	15.954300
3108.295767	15.979500
3103.493250	16.178500
3105.647267	16.043100
3104.832567	16.076400
3106.963283	15.935300
3103.687133	16.038200
3106.641017	15.853200
3099.885567	16.193100
3101.483167	16.077000
3105.927817	15.779100
3105.291533	15.768200
3096.006050	16.316200
3094.631967	16.378500
3096.067667	16.224600
3091.811167	16.370400
3099.423000	15.879100
3098.702650	15.877900
3106.916283	15.362900
3096.002550	16.012600
3098.245367	15.858000
3100.095500	15.572800
3099.888167	15.574500
3090.805917	16.114800
3087.831050	16.268200
3098.840467	15.522900
3093.047300	15.851500
3098.958400	15.441400
3098.440417	15.432600
3103.247467	15.102000
3099.469550	15.276400
3090.980617	15.699000
3094.080567	15.505800
3076.043667	16.573200
3090.232633	15.713000
3081.904450	16.114000
3077.528950	16.315900
3082.110333	15.996200
3080.108383	16.080200
3089.235167	15.522600
3086.553000	15.675400
3084.736983	15.731000
3075.377367	16.159800
3078.909650	15.958000
3071.461617	16.357800
3086.044200	15.470200
3078.958367	15.878400
3080.903300	15.745300
3086.426850	15.260200
3083.144317	15.442200
3079.912450	15.614200
3074.751367	15.939000
3079.646917	15.480900
3088.048100	14.954200
3081.214017	15.264900
3076.976583	15.522200
3070.877967	15.922800
3075.155617	15.657300
3073.892550	15.513700
3073.729317	15.535800
3064.085267	16.177200
3063.508500	16.199500
3069.379733	15.692000
3074.253983	15.408200
3070.217983	15.580100
3063.801400	15.938200
3070.086600	15.560500
3057.407983	16.275500
3055.406250	16.429600
3063.312833	15.956900
3063.798267	15.903300
3072.544417	15.232200
3066.756250	15.552400
3059.463833	15.988400
3060.397317	15.944700
3062.546433	15.685400
3057.697367	15.942000
3069.676300	15.167500
3063.792967	15.516600
3062.685700	15.557200
3054.461567	16.053300
3061.742317	15.527700
3058.905367	15.637800
3051.928400	16.012000
3056.892117	15.688500
3057.133250	15.687100
3058.417567	15.597000
3062.380783	15.338900
3058.440567	15.572400
3056.223367	15.595500
3051.012233	15.832100
3046.668183	15.992300
3047.164667	15.894600
3050.753683	15.683300
3050.146683	15.722300
3055.260250	15.397600
3050.657617	15.678300
3061.509617	14.978700
3054.790550	15.250900
3052.078567	15.353100
3045.142700	15.695500
3049.789850	15.400300
3050.594167	15.346500
3040.168317	15.954300
3049.827600	15.220900
3038.174317	15.907500
3043.412483	15.571400
3039.905450	15.798400
3039.834333	15.722600
3036.243567	15.892500
3046.907733	15.214700
3048.294400	15.155800
3036.737333	15.866900
3040.876183	15.575300
3048.938333	14.981600
3036.193067	15.687300
3036.650617	15.597600
3030.477217	15.954300
3042.602167	15.223500
3042.333517	15.224100
3026.947450	15.980500
3032.665067	15.639600
3022.627883	16.242800
3031.773000	15.705100
3032.886017	15.567000
3033.717433	15.442700
3034.768317	15.363300
3032.995667	15.411000
3033.188917	15.369300
3028.280733	15.645200
3028.493867	15.639600
3034.466967	15.140400
3031.478033	15.296600
3034.937900	15.026500
3024.135500	15.650800
3027.837900	15.427900
3022.287483	15.734000
3025.016233	15.419300
3029.339383	15.164300
3022.538050	15.553900
3011.447367	16.230300
3022.011733	15.499400
3020.070850	15.567700
3013.994850	15.872800
3013.419583	15.896900
3014.720633	15.815300
3016.788250	15.680200
3014.121883	15.846200
3020.296717	15.471000
3014.343933	15.710000
3019.283417	15.294000
3014.167133	15.590900
3020.292650	15.234400
3016.131517	15.469800
3012.698550	15.540700
3017.476183	15.252800
3020.292033	15.103100
3010.267583	15.662300
3008.502017	15.650700
3002.476383	15.991400
3005.981600	15.732100
3001.774467	15.953400
3009.947633	15.481100
3006.058683	15.723500
3010.146900	15.373600
3014.111217	15.084300
3003.284967	15.669300
3008.372450	15.365500
3015.342517	14.955300
3009.506100	15.298300
3007.626000	15.235000
3002.852967	15.517200
2994.171067	16.043400
3005.855600	15.341500
2995.949650	15.796900
3002.653633	15.355700
3010.529417	14.805600
2998.180933	15.540200
3003.496800	15.230500
2992.500983	15.917600
2995.859167	15.659700
2990.020733	15.901100
2991.840267	15.785700
2999.607550	15.294100
3001.794933	15.149300
3000.519600	15.213400
2994.943150	15.518500
3000.453650	15.017800
2993.604050	15.403600
2993.268217	15.411900
2994.159633	15.368900
2990.074617	15.519300
2990.729267	15.452700
2998.527900	14.905300
2997.874283	14.930000
2994.232233	15.104600
2998.870117	14.814600
2994.163833	14.931500
2990.818917	15.112500
2989.738650	15.165400
2993.337217	14.928900
2987.041683	15.185900
2990.243717	14.925000
2978.610900	15.513700
2985.214033	15.158900
2981.135683	15.392300
2983.356817	15.253500
2981.121850	15.357100
2988.102350	14.863300
2987.341750	14.875600
2986.241017	14.868600
2987.152433	14.807600
2983.516800	14.991100
2977.631033	15.324200
2978.157833	15.155900
2975.870900	15.287800
2973.797550	15.338200
2979.168867	15.028200
2976.455900	15.163600
2978.232100	15.067900
2969.532983	15.458600
2980.213900	14.743600
2977.866800	14.867800
2970.574250	15.319600
2978.714083	14.756000
2969.751250	15.253300
2969.448917	15.193800
2968.204700	15.244000
2978.991650	14.548600
2964.964033	15.430400
2971.405717	14.990100
2968.304533	15.054800
2956.518450	15.737200
2963.296617	15.312300
2962.273767	15.388500
2965.788500	15.172300
2967.605250	15.069100
2970.900067	14.713800
2973.921817	14.502900
2966.573133	14.880800
2961.397133	15.205100
2961.871833	15.152300
2962.454183	15.098600
2968.899233	14.546000
2963.394033	14.875400
2960.119767	15.048600
2961.865117	14.949900
2960.774933	14.912600
2955.036067	15.184800
2957.733567	14.968200
2950.406383	15.380600
2956.892367	15.006000
2954.501217	15.162300
2955.644250	15.012400
2954.228650	15.026500
2958.218233	14.789900
2956.480100	14.890600
2953.903333	15.026600
2948.209600	15.340600
2939.423767	15.873000
2952.239783	15.057800
2954.216383	14.909900
2959.942233	14.537300
2954.167583	14.892200
2956.944317	14.575800
2957.741633	14.537300
2950.622967	14.886900
2955.035883	14.612300
2953.189733	14.708300
2943.124817	15.303900
2946.835967	14.946600
2946.740217	14.919300
2939.322917	15.385200
2943.867750	15.116800
2953.793400	14.437000
2951.394967	14.536200
2952.884983	14.363300
2951.195300	14.400400
2947.891450	14.611600
2949.676450	14.483200
2946.624883	14.614400
2939.989000	14.953600
2944.795483	14.657300
2941.024283	14.857100
2941.484267	14.826300
2939.797150	14.926300
2941.677300	14.805100
2952.375000	14.099800
2949.340050	14.244400
2947.385017	14.330700
2956.524783	13.760900
2949.701217	14.013600
2949.509500	13.979200
2944.307817	14.236200
2945.332517	14.158500
2937.247167	14.655600
2944.091917	14.221800
2933.875267	14.674500
2939.368367	14.281800
2931.790967	14.707500
2937.251550	14.389900
2927.990767	14.938200
2931.045583	14.773400
2935.313100	14.407000
2928.640300	14.753200
2938.224667	14.176200
2931.346283	14.564900
2926.241550	14.824600
2934.155100	14.266000
2926.051617	14.693700
2923.939767	14.719500
2934.178200	14.099500
2929.665900	14.364400
2927.213567	14.503200
2926.845750	14.374000
2930.919950	14.091100
2929.590450	14.116900
2923.340900	14.476900
2915.896383	14.921000
2921.232883	14.587400
2914.395150	14.883100
2912.160567	15.010200
2914.846017	14.833200
2922.338950	14.381500
2916.457300	14.611600
2919.323450	14.413900
2917.446083	14.460800
2917.907400	14.425000
2920.013983	14.303900
2919.256850	14.333200
2917.725117	14.365800
2915.492967	14.455500
2920.480667	14.087100
2912.330050	14.569000
2916.603433	14.299700
2911.644400	14.602900
2911.535850	14.554600
2910.040517	14.543700
2915.872950	14.188000
2922.983083	13.752200
2908.818667	14.565900
2904.277883	14.688500
2913.063583	14.154500
2904.511917	14.613300
2911.297900	14.179000
2897.532867	15.000900
2905.430167	14.531700
2907.310517	14.317200
2903.703183	14.508200
2905.380600	14.294800
2905.768350	14.253700
2897.270583	14.775200
2899.731200	14.629000
2896.171667	14.701500
2892.849833	14.871500
2890.285300	15.006700
2896.398000	14.629300
2897.306450	14.572900
2900.279733	14.390000
2895.385583	14.633300
2890.076250	14.869600
2894.848950	14.578600
2894.432533	14.606300
2903.953800	13.976500
2896.150383	14.329700
2886.069750	14.915800
2893.220883	14.400800
2886.410067	14.817600
2893.603917	14.386500
2894.518383	14.332700
2896.209083	14.138900
2884.446817	14.830200
2888.696967	14.522400
2889.868633	14.460200
2889.058217	14.489400
2897.268817	13.992600
2885.112000	14.594800
2883.944183	14.668100
2897.389667	13.831800
2888.417017	14.368200
2883.012850	14.562400
2884.640400	14.431300
2884.048583	14.412200
2879.289567	14.654100
2896.849667	13.599300
2878.332833	14.692400
2878.764500	14.605600
2873.830283	14.812100
2879.200417	14.460300
2878.354500	14.476600
2879.011283	14.431700
2876.389917	14.581800
2876.848433	14.539400
2879.098250	14.357800
2877.720350	14.422000
2883.210183	14.062100
2875.987967	14.483100
2875.013200	14.494600
2873.001367	14.583600
2876.984000	14.267500
2877.223733	14.257400
2874.194733	14.422700
2879.599867	14.076600
2877.743750	14.001400
2865.206167	14.720400
2865.267167	14.703300
2864.112867	14.738700
2873.198733	14.018900
2870.767683	14.195000
2861.953450	14.679700
2865.562500	14.439100
2872.244150	14.002300
2867.506150	14.220400
2870.322383	14.035400
2865.815367	14.289600
2864.602717	14.346300
2862.389367	14.433900
2858.781750	14.637400
2855.476767	14.814600
2864.607950	14.266900
2860.643067	14.513100
2856.713050	14.710300
2856.765183	14.485700
2862.801567	14.120100
2858.927883	14.335700
2858.791233	14.334800
2859.992517	14.130900
2858.909900	14.176600
2857.569633	14.164700
2851.950483	14.498000
2848.690817	14.713200
2859.121683	14.107400
2838.126750	15.241000
2854.621117	14.205600
2861.411767	13.789800
2854.758917	14.196300
2849.316733	14.464700
2846.366700	14.532100
2853.893517	14.003100
2855.284550	13.940200
2845.085983	14.537300
2853.089033	14.062100
2846.900617	14.359800
2849.131433	14.096900
2849.413917	14.066100
2850.165583	13.967300
2847.534200	14.114800
2833.281867	14.943300
2844.407100	14.286400
2842.966900	14.208700
2845.139983	14.066900
2838.771550	14.441800
2837.699550	14.499700
2840.942633	14.168900
2841.895833	14.087600
2848.806717	13.624200
2839.349817	14.200200
2830.057233	14.765000
2838.412183	14.259500
2841.864133	13.864100
2836.307417	14.196300
2839.294417	14.024100
2836.916367	14.155200
2840.091283	13.934600
2844.383967	13.617000
2838.451250	13.930600
2828.848483	14.466500
2833.015700	14.221900
2836.568433	13.994000
2831.397517	14.274000
2832.616100	14.137900
2842.294650	13.533700
2823.901067	14.560200
2824.902717	14.484300
2831.141850	14.101000
2826.741467	14.361300
2822.293250	14.494900
2821.321050	14.533600
2826.410350	14.143000
2827.440350	14.071300
2822.035033	14.379500
2821.401950	14.422000
2811.054150	14.852800
2820.045800	14.314900
2811.840550	14.802100
2823.864450	14.081500
2825.110817	13.943400
2824.702200	13.918000
2820.307650	14.122000
2821.743200	14.037100
2830.548250	13.473400
2827.395700	13.667500
2818.063150	14.140300
2821.020617	13.871700
2820.646967	13.860300
2813.420100	14.254300
2819.796983	13.845800
2826.434267	13.437300
2814.998017	14.019600
2813.380367	13.983000
2816.511717	13.791600
2811.195750	14.106100
2816.075783	13.808300
2819.861050	13.430500
2815.418700	13.646500
2816.569900	13.496800
2804.545450	14.213800
2803.530267	14.282400
2816.105183	13.556600
2810.108100	13.855000
2806.224517	14.066100
2803.908333	14.152100
2805.404183	14.041400
2797.472500	14.520400
2806.486250	13.946800
2804.162183	13.916600
2807.971900	13.675600
2797.067350	14.286400
2796.420933	14.337500
2801.415283	13.959200
2803.844950	13.749700
2808.822550	13.422700
2800.402567	13.867500
2801.994883	13.789400
2802.304600	13.773100
2805.288583	13.562600
2806.541467	13.341000
2800.466283	13.679300
2802.373400	13.507000
2799.751500	13.654000
2795.512550	13.890400
2790.722800	14.180200
2792.604200	13.976200
2790.205617	14.119200
2784.357933	14.454200
2781.877800	14.620600
2785.504750	14.301100
2785.333883	14.277200
2791.533933	13.877300
2781.446050	14.459800
2780.572050	14.516200
2789.293883	14.001200
2785.695200	14.213800
2784.520700	14.271700
2787.261033	14.108000
2787.251917	14.095800
2787.261783	14.077400
2790.629183	13.866800
2793.383200	13.658500
2791.773167	13.761900
2791.948300	13.742500
2793.325933	13.660700
2788.626917	13.882500
2785.558800	13.849000
2786.822983	13.729700
2786.447650	13.718200
2782.786850	13.908700
2779.215217	13.952400
2776.350333	14.074100
2778.884567	13.891500
2770.948267	14.352600
2774.487433	14.132300
2766.675083	14.583200
2771.621383	14.270600
2779.971767	13.777200
2775.782583	14.017100
2778.637367	13.843500
2778.876867	13.485600
2771.576400	13.880800
2777.251850	13.523800
2782.916250	13.149700
2768.337850	13.816900
2773.730783	13.480700
2774.031317	13.428300
2762.645650	14.071900
2768.177017	13.708500
2761.205083	13.990400
2765.167950	13.727800
2760.050500	14.003800
2763.866417	13.750500
2771.906383	13.257800
2761.006917	13.901700
2762.062983	13.829600
2763.578183	13.754000
2758.931883	14.008700
2767.139700	13.487500
2763.395533	13.345400
2757.485050	13.669000
2758.837933	13.570100
2762.372267	13.358400
2765.323550	12.975100
2757.042850	13.484500
2742.076450	14.392600
2755.707733	13.585400
2749.508917	13.840500
2742.334783	14.247200
2753.270500	13.598200
2753.897567	13.571100
2754.125067	13.548000
2747.568850	13.921300
2748.321733	13.863800
2745.266300	14.038900
2749.844700	13.747900
2757.205700	13.298200
2750.782033	13.590500
2746.326783	13.763000
2746.896183	13.712000
2750.772017	13.459500
2741.043450	14.023300
2741.470567	13.974900
2748.810767	13.548600
2747.397500	13.607800
2747.828717	13.560900
2741.163767	13.666800
2740.398300	13.649800
2744.382033	13.382000
2744.224333	13.361000
2745.410483	13.230800
2738.265617	13.656300
2737.257517	13.731900
2741.562367	13.466400
2735.553183	13.551500
2739.231983	13.259000
2731.459417	13.727400
2736.844617	13.409100
2732.911700	13.641700
2740.958917	13.149300
2726.023633	14.027600
2730.695167	13.740300
2727.242167	13.922100
2732.860400	13.587400
2729.396750	13.713400
2734.755983	13.273700
2740.505783	12.891200
2732.887267	13.313400
2725.482150	13.744600
2735.930117	13.087500
2732.343267	13.270800
2728.639317	13.461000
2731.048333	13.237400
2727.420250	13.201600
2732.622350	12.863500
2726.936550	13.190500
2729.099683	13.036700
2730.521083	12.923600
2727.535550	13.075600
2727.035150	13.093000
2717.674017	13.660500
2714.457350	13.600600
2717.443683	13.315400
2724.632967	12.877200
2716.947317	13.305600
2707.907900	13.854100
2712.741467	13.578600
2713.195800	13.554700
2718.115950	13.249600
2717.241283	13.297700
2720.312100	13.115200
2718.562050	13.095400
2715.167950	13.223200
2718.410600	13.006600
2711.807067	13.370700
2713.831283	13.234700
2713.960317	13.233900
2709.582650	13.449100
2707.573817	13.394100
2704.067667	13.588800
2702.288417	13.676400
2701.588367	13.730400
2705.398700	13.483600
2695.854767	14.037900
2700.031400	13.573000
2704.099383	13.308500
2702.538033	13.399700
2699.976633	13.552100
2701.098050	13.371100
2692.068450	13.869400
2701.939117	13.263600
2703.389500	13.163200
2700.621300	13.320700
2692.473650	13.800100
2703.205550	13.095100
2700.421850	13.215100
2697.099650	13.378300
2685.989833	13.997900
2692.498000	13.619800
2685.424283	14.035700
2698.919533	13.226900
2699.920767	13.183200
2689.084283	13.531100
2692.218083	13.323800
2687.412583	13.556900
2685.904083	13.567100
2687.983367	13.423800
2689.120650	13.317400
2681.481050	13.749100
2680.198617	13.818300
2689.176700	13.276900
2689.371900	13.256500
2691.610017	13.119900
2697.357933	12.731900
2697.046533	12.728600
2690.572733	13.093100
2689.561350	13.157500
2678.764683	13.632800
2681.179700	13.473400
2668.991167	14.185500
2679.052317	13.574400
2670.499067	13.903500
2672.870900	13.744600
2681.530250	13.201300
2677.473433	13.428200
2672.091383	13.552100
2678.101083	13.196000
2668.608483	13.775900
2671.587633	13.541600
2670.993450	13.483000
2666.146217	13.685100
2663.163800	13.833400
2666.102467	13.618500
2664.307350	13.703500
2667.006500	13.537000
2674.959017	13.063800
2675.210500	13.019200
2660.981650	13.829200
2677.674250	12.745900
2672.022833	13.064600
2667.602800	13.310800
2667.585750	13.322200
2665.691100	13.392400
2670.395533	13.102400
2674.448133	12.837200
2666.939800	13.266400
2659.023217	13.427400
2672.012017	12.628200
2661.018767	13.272900
2656.701233	13.514600
2655.483433	13.457000
2659.866117	13.167000
2655.369383	13.389500
2652.490950	13.593400
2653.855533	13.509500
2656.348733	13.348700
2651.965183	13.498700
2663.793950	12.680200
2660.103350	12.863500
2661.576183	12.758300
2659.519467	12.868500
2663.268600	12.624100
2659.746950	12.842800
2652.962650	13.229500
2654.545033	13.115900
2648.817067	13.370700
2653.947117	13.078500
2645.325417	13.569300
2648.098217	13.380000
2661.540667	12.567900
2650.824800	13.204300
2651.328100	13.150300
2660.153017	12.620100
2659.144717	12.492600
2649.561550	13.063600
2648.172950	13.138000
2649.404650	13.038100
2649.016800	12.844000
2649.642150	12.791200
2641.732367	13.227900
2646.687400	12.923800
2635.809050	13.447900
2638.361350	13.253800
2643.710367	12.908400
2635.731267	13.365900
2645.554750	12.772000
2644.250517	12.828300
2646.966950	12.639400
2637.369967	13.208700
2635.375667	13.325700
2646.812750	12.645700
2643.968033	12.773900
2646.898217	12.420300
2645.260633	12.466400
2638.362483	12.846800
2633.041650	13.150000
2640.548767	12.673500
2637.816867	12.791100
2626.340117	13.292400
2625.473983	13.280300
2625.819517	13.234200
2628.444083	13.064300
2630.060217	12.987000
2631.066783	12.914000
2619.629967	13.428600
2619.646450	13.373200
2625.773550	13.018900
2624.396583	13.099700
2636.937117	12.370200
2623.250050	13.165000
2622.411500	13.200700
2625.957650	12.974500
2617.444667	13.153500
2613.698550	13.380100
2619.417167	13.028400
2622.830450	12.794500
2624.137233	12.600500
2620.687583	12.729500
2617.808933	12.887900
2615.514200	13.017700
2613.495017	13.135500
2614.552583	13.074200
2614.295783	13.049300
2620.900417	12.561600
2616.814217	12.757800
2618.352767	12.654900
2618.541700	12.642100
2607.973083	13.232600
2611.957217	12.993300
2610.008800	13.119400
2614.008217	12.856500
2611.257900	12.717100
2615.015117	12.471600
2609.516933	12.785600
2605.645067	13.020300
2613.599883	12.389600
2613.027950	12.370600
2605.864083	12.796100
2608.518983	12.607400
2602.641833	12.938000
2602.936650	12.919000
2600.447100	13.037200
2606.358867	12.634200
2608.600500	12.501100
2603.548467	12.809700
2600.159183	13.018700
2611.485733	12.339200
2604.463483	12.748100
2607.170367	12.602400
2602.093167	12.736800
2591.913317	13.031100
2594.422733	12.838700
2586.798933	13.282400
2588.133400	13.197400
2587.206867	13.218300
2593.206967	12.864600
2602.470583	12.295100
2596.999517	12.638700
2594.602000	12.559000
2592.549433	12.562700
2590.801233	12.657500
2587.990883	12.818600
2590.183300	12.668800
2601.916533	11.948900
2592.358783	12.485300
2589.982550	12.619000
2580.424000	12.824800
2578.619850	12.945400
2583.482117	12.640800
2577.987950	12.976300
2596.501317	11.709300
2582.537683	12.534500
2580.745783	12.633500
2582.235383	12.555500
2577.137583	12.800300
2579.355917	12.556800
2583.617250	12.299800
2577.526317	12.666000
2581.978233	12.383300
2575.987383	12.608000
2571.155050	12.884200
2568.247033	13.050500
2573.624100	12.712900
2573.788650	12.551800
2563.946067	13.132500
2575.749133	12.437000
2572.368017	12.644700
2558.584417	13.462200
2563.814633	13.163900
2572.980400	12.623200
2571.803183	12.704000
2572.191550	12.406000
2559.986867	13.053000
2557.418267	13.232100
2559.359150	13.136200
2575.188033	12.197000
2572.895333	12.328400
2564.073950	12.715000
2558.466150	12.983800
2560.654100	12.850900
2564.319183	12.621500
2564.002033	12.641300
2570.016133	12.251900
2566.426550	12.438700
2564.034667	12.598500
2565.882150	12.396400
2558.990267	12.531000
2566.556700	12.039100
2567.589417	11.979900
2566.421817	12.035100
2563.495483	12.119300
2568.658650	11.784100
2553.567467	12.672000
2557.516517	12.422100
2551.663883	12.766400
2553.528633	12.648200
2555.501133	12.347900
2559.846983	12.027800
2558.566867	12.065100
2557.928433	12.077600
2551.590383	12.445100
2550.955217	12.484200
2549.364483	12.430400
2547.418333	12.465200
2546.074983	12.554300
2560.097600	11.695300
2565.674883	11.317700
2550.017150	12.277000
2550.066300	12.277900
2552.779683	12.102200
2539.103433	12.698600
2540.192133	12.542900
2535.922667	12.807300
2534.968450	12.882700
2532.116033	13.047800
2549.849300	11.998300
2539.381633	12.603800
2544.207867	12.318900
2542.692133	12.385100
2538.420300	12.538900
2539.909250	12.419800
2536.579017	12.594900
2542.218533	12.240800
2548.588183	11.752400
2539.228983	12.266000
2546.264600	11.827000
2543.407600	11.979400
2539.252817	12.199500
2542.663783	11.978600
2538.320117	12.037200
2532.076900	12.337900
2535.118283	12.134000
2534.030967	12.198900
2525.196117	12.684000
2536.217267	12.026700
2536.879300	11.972800
2533.543650	12.160000
2535.878533	11.798300
2529.434833	12.028400
2525.587383	12.226400
2531.404167	11.863200
2535.097083	11.615900
2526.353350	12.129100
2521.858767	12.365700
2516.563383	12.695000
2517.220033	12.584600
2523.818967	11.949900
2518.965883	12.233000
2517.633683	12.323000
2521.896667	12.046800
2517.731700	12.126100
2519.586517	11.983800
2522.808567	11.789700
2518.670167	12.039900
2518.522267	11.947800
2511.414817	12.340800
2514.854717	12.055500
2521.055050	11.680000
2507.760350	12.472300
2515.175200	12.059200
2505.692000	12.639400
2507.405967	12.510600
2508.940633	12.424400
2504.369050	12.702400
2504.600900	12.512800
2508.784367	12.122100
2506.365450	12.250600
2517.159783	11.592800
2511.847867	11.903400
2501.555417	12.524700
2509.997083	11.998100
2508.222533	12.059600
2505.282550	12.154600
2505.484333	11.968100
2497.375033	12.425600
2490.666733	12.795500
2492.966317	12.652200
2504.294617	11.997600
2498.648933	12.340100
2491.523633	12.788600
2496.356367	12.507600
2498.133033	12.110300
2496.430700	12.126100
2484.712717	12.746100
2492.645250	12.258700
2491.067850	12.330400
2500.673083	11.745500
2500.502783	11.653400
2494.013500	12.027700
2498.291850	11.742100
2496.312433	11.845700
2494.447867	11.827200
2495.355767	11.678100
2488.535733	12.067700
2491.043783	11.905100
2492.186617	11.810100
2496.198250	11.532100
2494.994450	11.552500
2487.084667	11.811600
2485.093500	11.929300
2480.595583	12.182000
2488.816900	11.676100
2484.768550	11.755000
2490.943933	11.349200
2487.763383	11.542700
2486.689650	11.589700
2482.600283	11.817500
2485.524033	11.623700
2482.513150	11.705800
2484.227283	11.600900
2476.832383	12.021200
2480.496783	11.805800
2493.168467	10.938600
2486.087567	11.312100
2473.311767	12.045000
2473.251767	12.026400
2475.259583	11.929100
2479.948833	11.633600
2461.533683	12.737300
2470.306417	12.227100
2470.370483	12.239300
2481.072067	11.617500
2481.454667	11.399700
2473.799550	11.634400
2459.910633	12.449900
2470.344350	11.832400
2469.837883	11.805500
2467.615983	11.839100
2472.371200	11.555200
2463.754417	12.084300
2466.807517	11.888100
2464.317333	12.039500
2467.348400	11.841400
2463.321150	11.847400
2463.220250	11.857600
2466.126983	11.655200
2459.229083	12.038000
2467.908733	11.355200
2469.559733	11.252900
2448.530667	12.474900
2457.352367	11.939700
2455.534083	11.933300
2460.166583	11.588600
2458.613083	11.668100
2451.646083	12.080600
2453.982900	11.931400
2451.518000	12.091900
2456.641667	11.805000
2448.158400	12.302200
2449.375917	12.097200
2453.665867	11.657700
2444.538817	12.201300
2451.845400	11.728900
2447.652183	11.977700
2448.786883	11.905100
2455.026800	11.529100
2450.604617	11.793600
2448.919883	11.876900
2444.407383	11.876000
2450.791917	11.471100
2445.960433	11.723000
2450.450450	11.454100
2437.378383	12.221000
2440.937000	12.022000
2455.182450	11.076400
2445.215650	11.627200
2435.283867	12.171900
2438.209483	12.000200
2450.640517	11.246100
2436.763633	12.061700
2447.235717	11.262300
2443.322983	11.480300
2437.770133	11.816300
2438.735450	11.716900
2433.105450	11.946100
2430.160933	12.047300
2435.253917	11.705100
2430.680917	11.951400
2431.438117	11.888700
2430.746117	11.919300
2436.588617	11.575200
2435.260767	11.639100
2435.255700	11.622700
2436.351817	11.550600
2432.767683	11.600900
2425.820233	11.795900
2424.406917	11.854200
2431.169217	11.445900
2428.571567	11.582400
2423.850117	11.865000
2426.113250	11.743900
2424.837050	11.713000
2435.102933	11.083400
2416.692383	12.179000
2425.859433	11.619500
2422.062783	11.837300
2433.341183	11.153900
2426.223033	11.317100
2422.338050	11.479000
2421.340850	11.545900
2418.030550	11.740600
2412.621750	12.062500
2417.819833	11.726300
2415.972517	11.827500
2416.590650	11.779900
2423.056133	11.258300
2419.444633	11.463200
2423.143283	11.212100
2425.071033	11.049500
2415.977300	11.534200
2409.103983	11.790500
2411.929400	11.588200
2408.484133	11.775800
2403.483050	12.062500
2411.006083	11.469800
2405.323517	11.782800
2408.743117	11.526300
2407.253917	11.601600
2407.048267	11.619900
2399.836833	12.035900
2411.850667	11.315400
2411.864900	11.303200
2402.478517	11.874300
2401.012117	11.962200
2410.964550	11.068000
2404.969200	11.371900
2399.081583	11.734400
2405.172950	11.360200
2406.443033	11.200700
2408.677233	11.032400
2394.098833	11.865800
2397.166267	11.693400
2403.461100	11.273800
2398.764567	11.558400
2394.090100	11.714800
2397.654917	11.417400
2401.646283	11.144300
2395.411283	11.489000
2400.345350	11.128000
2391.839450	11.509000
2395.320967	11.291100
2397.860633	11.114600
2394.758900	11.293600
2385.563800	11.850400
2393.000917	11.393400
2388.993550	11.423200
2385.700383	11.594900
2385.084950	11.624200
2384.392333	11.653400
2390.187667	11.299200
2387.721367	11.437500
2377.542000	11.854000
2378.974900	11.758300
2383.411233	11.503400
2389.334350	11.133100
2387.558500	11.190400
2384.827317	11.328900
2389.136517	11.050200
2377.829433	11.707100
2379.805633	11.571200
2379.913100	11.563000
2384.022617	11.181300
2376.306217	11.496600
2381.180333	11.173100
2379.611283	11.240600
2375.727567	11.452800
2376.362033	11.400200
2385.204783	10.879700
2382.809833	11.024000
2381.791383	11.026400
2373.470917	11.244300
2365.481617	11.670300
2366.078750	11.638300
2363.678283	11.796500
2365.339333	11.702300
2371.378633	11.328200
2373.979250	11.182900
2368.343233	11.522300
2368.593200	11.389900
2365.524767	11.532300
2371.664167	11.173500
2369.762133	11.260700
2366.149217	11.424600
2365.988450	11.412100
2357.702300	11.728900
2357.058167	11.717700
2358.814433	11.624000
2362.145483	11.417000
2357.442167	11.693100
2362.022467	11.406600
2361.350500	11.228500
2361.345767	11.234400
2373.175783	10.507700
2360.002733	11.286200
2359.942200	11.239000
2366.976450	10.676500
2353.940800	11.433100
2349.516067	11.688300
2355.764450	11.315800
2355.816950	11.308300
2350.661600	11.584300
2347.265333	11.598500
2350.271517	11.394600
2353.407650	11.192500
2351.275750	11.313100
2344.456883	11.717000
2355.046700	11.076400
2359.142100	10.818700
2358.528950	10.852600
2354.833283	11.040800
2357.880650	10.824700
2340.401033	11.568800
2339.103700	11.558200
2325.949783	12.323000
2336.295950	11.749300
2338.684600	11.606200
2343.121967	11.340300
2342.455267	11.160300
2336.394683	11.489000
2334.552267	11.565600
2337.628183	11.351600
2335.921100	11.395300
2335.287550	11.371300
2336.222533	11.321600
2338.751383	11.176100
2345.732950	10.741600
2338.625717	11.167200
2335.631850	11.277100
2336.636783	11.141300
2339.197750	10.978000
2340.064700	10.922800
2336.934950	11.092600
2332.699367	11.364000
2337.256700	11.082700
2335.144750	11.197600
2335.263517	11.164500
2336.362333	11.093300
2341.547217	10.761000
2328.654100	11.137300
2323.334850	11.392600
2330.062183	10.995500
2331.302300	10.895500
2318.931733	11.610800
2331.163267	10.877100
2317.654117	11.364900
2319.224283	11.271500
2334.887833	10.328600
2328.373767	10.704300
2319.507050	11.110000
2317.071650	11.189200
2332.832017	10.237200
2317.087100	11.174800
2316.141950	11.228500
2325.027733	10.723100
2314.912617	11.267700
2320.134717	10.919700
2321.116350	10.842400
2314.869917	11.198400
2309.383317	11.546100
2314.878000	11.240500
2320.995150	10.873600
2327.203233	10.477400
2320.850950	10.775200
2309.196400	11.239000
2305.875900	11.418100
2314.435250	10.888600
2314.593067	10.866600
2309.566333	11.154800
2313.123450	10.948600
2309.253150	10.984000
2309.248633	10.936400
2310.510050	10.876000
2314.654517	10.608600
2313.646633	10.676300
2305.722317	11.124900
2311.598117	10.767300
2313.724533	10.627100
2305.291667	10.983000
2298.852617	11.219400
2305.329000	10.814200
2306.617283	10.734200
2301.847500	10.996000
2297.622300	11.245300
2301.960750	10.966600
2304.408233	10.823600
2293.370683	11.377100
2297.274233	11.058500
2301.481333	10.779500
2295.846850	11.111200
2296.505550	11.057200
2299.876817	10.781100
2295.960467	11.020500
2294.508133	11.098700
2300.536267	10.729500
2284.262983	11.542700
2292.474117	11.015100
2298.608883	10.624700
2290.734583	11.065100
2291.371833	11.014700
2296.907317	10.679100
2294.698350	10.766200
2285.266217	11.333400
2294.114117	10.781100
2293.661933	10.811900
2283.599017	11.115900
2285.770850	10.903300
2284.835917	10.944300
2287.164050	10.782700
2286.105467	10.871100
2284.890867	10.918500
2286.327183	10.738700
2292.889000	10.285000
2277.328550	11.193100
2281.451317	10.912500
2285.747450	10.621600
2288.784167	10.409400
2272.850650	11.346700
2273.483483	11.289500
2278.268283	10.994000
2278.900217	10.982700
2275.724583	11.034500
2267.683417	11.279700
2274.261450	10.852900
2272.106267	10.983600
2263.964033	11.473400
2274.448050	10.849300
2278.763833	10.595600
2259.528717	11.550000
2269.574550	10.935700
2266.653450	11.122300
2261.688683	11.409500
2261.755100	11.261800
2264.930150	11.098000
2267.379183	10.939400
2268.002400	10.894600
2266.850017	10.799100
2261.452683	11.077700
2266.617367	10.747500
2262.438400	10.998700
2259.923967	11.132400
2258.453883	11.225900
2265.576350	10.797400
2267.057283	10.701500
2273.130383	10.240100
2256.189317	11.039100
2254.090733	11.147900
2249.736217	11.400300
2259.272300	10.816600
2250.399967	11.366700
2248.991583	11.460500
2265.108367	10.476600
2256.950000	10.915300
2254.919283	10.730300
2255.915317	10.661700
2247.050083	11.198600
2249.380467	11.054700
2242.135433	11.420000
2255.893050	10.591300
2251.854833	10.800200
2252.552667	10.746600
2254.422850	10.507000
2251.697683	10.641800
2239.154983	11.357900
2245.636950	10.956400
2255.954967	10.246800
2246.193567	10.711500
2253.231450	10.269400
2250.894367	10.391100
2253.046267	10.183800
2242.263683	10.701500
2245.176300	10.507900
2239.141433	10.847600
2242.430783	10.656800
2238.706083	10.880000
2241.180783	10.759100
2237.105450	10.993300
2243.553000	10.615600
2240.028683	10.800500
2244.119900	10.509100
2240.311700	10.585000
2239.083983	10.628900
2235.159867	10.857900
2234.290617	10.886700
2228.588350	11.059600
2231.292400	10.889200
2244.725017	10.063200
2238.632083	10.412600
2236.406800	10.408600
2239.023800	10.174300
2231.257217	10.619100
2233.864133	10.454900
2231.603600	10.559200
2237.560933	10.211000
2223.741117	11.020500
2226.037850	10.876600
2224.395483	10.958900
2229.659600	10.657900
2228.857417	10.584300
2227.514467	10.389300
2223.224800	10.635100
2214.144650	11.168200
2212.782533	11.247800
2214.849167	11.062200
2218.467967	10.849500
2224.214733	10.424300
2223.676283	10.451900
2226.866583	10.219400
2220.285900	10.561600
2218.241817	10.542600
2219.649050	10.403200
2216.350250	10.528300
2213.301400	10.670800
2216.771650	10.449400
2222.537033	10.091900
2216.020333	10.372400
2210.353117	10.682100
2214.321483	10.394600
2207.218250	10.818400
2211.195467	10.572900
2220.576883	10.028000
2201.506850	11.005600
2202.187717	10.957500
2198.499767	11.170800
2214.072717	10.226100
2201.599767	10.938600
2212.826950	10.224100
2211.066433	10.314500
2210.461817	10.318200
2205.404133	10.607000
2210.092117	10.330800
2202.723633	10.768700
2208.658433	10.228700
2213.144833	9.927800
2199.836267	10.610700
2202.658283	10.460300
2200.407383	10.575200
2194.464617	10.922100
2197.553550	10.594900
2203.469683	10.200500
2207.620750	9.913300
2212.067867	9.646800
2199.239317	10.278300
2193.612533	10.550900
2198.624117	10.137600
2192.856033	10.522100
2196.631717	10.297500
2200.598717	10.053000
2189.101000	10.665400
2196.071317	10.177800
2184.428150	10.835200
2185.199567	10.795800
2186.582133	10.649000
2187.050000	10.510000
2189.661550	10.319200
2191.506417	10.176900
2191.757800	10.100200
2187.465717	10.312800
2185.696083	10.405100
2188.629100	10.241200
2196.199283	9.745700
2190.607033	9.938300
2193.706433	9.736100
2179.613650	10.570300
2178.224233	10.645700
2188.167033	9.910700
2180.090350	10.323400
2181.563033	10.150700
2190.197517	9.616800
2188.151333	9.733700
2182.528250	10.041400
2180.573367	10.134600
2179.447567	10.166100
2182.107800	9.997000
2174.843500	10.408900
2173.217600	10.510000
2170.074583	10.679000
2173.632833	10.475300
2172.943950	10.489600
2167.468650	10.759600
2168.004850	10.556800
2168.495067	10.515900
2160.779767	10.944300
2169.569517	10.411200
2169.515367	10.401300
2175.799783	10.010600
2177.462533	9.887600
2167.931317	10.422600
2167.295983	10.332800
2157.347467	10.921200
2174.526217	9.884100
2172.377483	9.986900
2165.765317	10.243800
2159.581717	10.570800
2162.485933	10.337600
2156.867833	10.638800
2155.390883	10.718000
2162.927383	10.281200
2168.014817	9.913800
2163.922383	10.089800
2170.155167	9.660300
2166.202467	9.858300
2163.470167	9.993000
2160.446033	10.164500
2157.665983	10.269500
2160.122450	10.032700
2156.950517	10.190400
2158.004317	10.095600
2154.395500	10.213300
2145.741800	10.632400
2152.248483	10.244900
2148.029383	10.437500
2151.140383	10.250000
2150.328750	10.305400
2147.802717	10.458300
2157.349400	9.820900
2150.719033	10.170500
2139.856833	10.780100
2147.138567	10.312200
2144.789117	10.431900
2147.770683	10.240700
2146.681567	10.258200
2151.762467	9.895500
2143.069400	10.398100
2150.385117	9.933600
2147.470917	10.112700
2147.574217	10.095600
2155.566533	9.440000
2147.077583	9.941300
2159.587600	9.167200
2151.050550	9.676300
2135.044317	10.589100
2142.524433	10.008200
2136.452650	10.365700
2137.111317	10.275000
2145.089233	9.775700
2143.414567	9.850500
2143.971433	9.786200
2143.887517	9.717300
2138.758833	9.986300
2142.094300	9.756400
2137.140133	10.035500
2139.430833	9.852800
2137.933567	9.933000
2131.313983	10.243100
2122.968533	10.715300
2134.609050	10.026100
2128.601617	10.364700
2124.793400	10.523500
2118.416750	10.880200
2141.372733	9.444200
2127.841717	10.209300
2126.210350	10.286200
2132.262717	9.904800
2135.968150	9.538600
2126.989200	9.994300
2122.386250	10.142800
2122.424517	10.168200
2120.491917	10.281600
2124.653367	10.031100
2126.584683	9.882800
2133.214100	9.431200
2131.188717	9.466200
2113.429933	10.495400
2126.845717	9.678300
2124.507400	9.817600
2121.662400	9.954700
2123.657050	9.644500
2119.918550	9.841000
2121.491783	9.744200
2115.818717	10.061100
2118.633267	9.769200
2108.033100	10.356700
2123.931483	9.348200
2112.179017	10.041600
2124.500450	9.265900
2119.016567	9.596700
2118.916983	9.461900
2116.510633	9.540800
2106.525400	10.051000
2115.801150	9.502300
2117.752817	9.372600
2111.604200	9.743500
2105.809417	10.039500
2114.769233	9.473300
2111.232683	9.631100
2103.353917	10.074300
2100.063883	10.241000
2115.296617	9.284700
2105.804567	9.825900
2099.765783	10.193300
2098.540183	10.200500
2098.482967	10.092000
2098.942600	10.041700
2094.915033	10.222100
2102.744600	9.736300
2100.057300	9.838600
2099.362200	9.851500
2096.585700	10.011100
2096.732433	10.009100
2094.783633	9.978800
2097.946267	9.772200
2092.276933	10.110200
2098.144900	9.763600
2094.995683	9.803900
2090.369517	10.054200
2094.744517	9.731100
2083.820250	10.370800
2094.453850	9.735100
2097.649117	9.526500
2093.412017	9.677100
2086.312100	10.083400
2096.332233	9.457700
2099.387817	9.236100
2087.104550	9.796600
2084.790550	9.919300
2095.243783	9.273800
2084.000367	9.922500
2087.364667	9.600600
2079.039417	9.985500
2081.517517	9.831900
2083.355417	9.699900
2085.625600	9.509200
2077.177500	9.937900
2079.807233	9.793700
2082.810083	9.602600
2081.606550	9.647500
2075.682833	9.819500
2078.908017	9.618300
2078.091250	9.676000
2080.989917	9.477900
2080.797683	9.337100
2070.297900	9.954700
2064.408383	10.267400
2064.047850	10.312000
2072.743500	9.796600
2074.828400	9.670000
2069.658733	9.847400
2059.606467	10.401600
2072.977400	9.565900
2073.300300	9.524500
2066.828317	9.901500
2065.227600	10.008400
2064.855617	9.912000
2068.405300	9.662200
2067.077233	9.753200
2065.178850	9.832300
2069.498167	9.524700
2061.536133	9.881900
2061.459033	9.876800
2049.620483	10.525700
2059.721150	9.925300
2067.390750	9.464800
2059.855650	9.916900
2061.640967	9.727200
2062.301017	9.683400
2060.440067	9.711000
2061.917150	9.611500
2058.197550	9.805600
2059.264800	9.729100
2061.899317	9.514800
2064.567400	9.304900
2061.913933	9.347300
2063.351733	9.242000
2057.544150	9.563800
2060.022050	9.418300
2053.034800	9.676000
2054.547183	9.560000
2049.532150	9.847600
2051.497450	9.707800
2053.865733	9.507800
2050.493233	9.602900
2052.219500	9.484900
2049.067000	9.682000
2056.705583	9.176900
2044.381450	9.758200
2048.652500	9.492400
2048.160117	9.464700
2046.418517	9.543300
2044.117617	9.632700
2034.550667	10.183500
2036.883117	10.052700
2045.006850	9.542500
2039.363750	9.803200
2031.923683	10.259600
2040.483533	9.753200
2040.739583	9.722600
2041.731617	9.586800
2041.691117	9.558300
2033.844100	9.961000
2041.456033	9.497300
2031.166667	10.086900
2039.766617	9.554100
2038.853200	9.513400
2036.156967	9.578700
2031.711850	9.788800
2039.670933	9.267500
2030.877717	9.786900
2036.963950	9.396700
2034.327033	9.554600
2033.551667	9.591000
2039.332517	9.203100
2039.191717	9.131700
2031.245400	9.573100
2035.701233	9.238100
2039.395467	8.979900
2037.423017	9.048000
2036.404783	9.083300
2038.261083	8.945900
2038.184983	8.951300
2028.578700	9.330400
2027.004850	9.370600
2025.820367	9.374100
2031.913817	9.007800
2023.752850	9.481900
2026.842183	9.286100
2024.836083	9.238100
2025.460017	9.183600
2014.565767	9.801900
2020.375933	9.457700
2026.957017	8.947800
2017.428083	9.468200
2019.035617	9.324600
2017.690733	9.394100
2027.007283	8.833100
2015.737633	9.514700
2019.202883	9.280700
2013.000533	9.634400
2018.497467	9.305100
2017.407550	9.371500
2020.932483	9.140600
2011.964783	9.605900
2007.254050	9.857200
2014.368050	9.352300
2013.077650	9.404800
2010.772817	9.530100
2011.447450	9.479200
2008.499950	9.472600
2013.599417	9.160800
1999.019417	9.968700
2009.972350	9.311800
2003.629850	9.532300
2004.069933	9.499700
1993.847117	10.077600
2006.184750	9.321100
2002.355750	9.492400
2003.495267	9.400500
2009.885133	9.011300
2004.997350	9.287200
1999.457917	9.573900
2002.621750	9.329200
2000.711650	9.419800
2005.864200	9.084700
2010.043183	8.792600
2000.767867	9.201600
1995.941183	9.471500
1997.377167	9.324600
2006.088750	8.764900
1995.882033	9.348200
1996.563433	9.306800
2002.266200	8.784400
1997.121900	9.085600
1997.395833	8.992400
1991.062300	9.357400
1986.512150	9.647500
1991.022367	9.369600
1987.263783	9.458900
1997.778050	8.770600
2000.204567	8.580600
1990.900467	9.110100
1995.420933	8.828900
1992.406617	8.954400
1975.968167	9.954000
1986.349867	9.306900
1990.584100	9.046000
1993.752850	8.884000
1997.634933	8.616500
1994.362633	8.718800
1982.446367	9.415800
1980.343367	9.500100
1988.153517	9.015600
1977.516667	9.627900
1987.284850	9.040600
1989.029100	8.796400
1989.218517	8.737200
1981.630233	9.107300
1976.182233	9.417500
1986.452550	8.776000
1992.765683	8.386100
1991.242183	8.251100
1974.442917	9.248700
1971.108833	9.454700
1975.553917	9.186300
1973.942433	9.230900
1976.462667	9.064200
1978.431200	8.873500
1973.382367	9.150000
1969.905050	9.350800
1975.493033	8.998100
1971.051233	9.161300
1964.387150	9.473800
1967.819417	9.246300
1967.978100	9.188200
1965.486317	9.303000
1971.498033	8.910200
1965.797533	9.226400
1958.103383	9.531800
1967.142650	8.975200
1971.771817	8.683800
1961.696317	9.282600
1968.466733	8.738600
1969.370117	8.642700
1970.488617	8.501100
1958.012467	9.237600
1956.959767	9.276600
1955.793667	9.327900
1959.527717	8.987400
1955.891667	9.144000
1947.423150	9.593800
1954.274200	9.159700
1956.049567	9.037200
1957.314900	8.956900
1966.713483	8.341400
1957.739383	8.806700
1960.724500	8.579800
1950.640950	9.220900
1957.899200	8.689600
1961.876467	8.376600
1955.763933	8.701700
1951.512150	8.907100
1946.574150	9.177700
1947.867000	9.090100
1950.640583	8.840600
1950.467650	8.756200
1948.395217	8.854200
1948.264183	8.802500
1944.815233	9.007100
1948.302800	8.787100
1949.530767	8.686800
1952.727683	8.434100
1939.880033	9.174500
1948.628900	8.660200
1941.837850	9.033100
1950.983233	8.413700
1951.202383	8.375300
1951.998683	8.261600
1943.954717	8.688000
1943.571267	8.699100
1942.729133	8.723600
1930.574750	9.269500
1932.935767	9.130500
1950.936033	8.016800
1943.469117	8.472900
1935.437650	8.864800
1939.399150	8.537800
1942.726550	8.314900
1934.707983	8.742800
1930.434033	8.975600
1937.429850	8.558800
1932.771017	8.817000
1934.100083	8.679200
1925.719833	9.156800
1930.188350	8.872600
1929.105200	8.912500
1926.127000	9.075700
1933.294750	8.635300
1925.493433	8.941400
1918.131467	9.360900
1925.005233	8.871200
1922.756333	9.002900
1924.424967	8.891400
1921.406000	9.061600
1924.549167	8.731200
1922.045117	8.874300
1914.370167	9.300600
1916.436917	9.189600
1916.426067	9.084300
1917.355583	8.993600
1913.109167	9.201600
1920.191700	8.763400
1912.882600	9.198700
1914.714817	9.085800
1912.836983	9.110000
1905.785467	9.451800
1915.641033	8.831600
1909.868367	9.140400
1909.266483	9.156800
1919.069733	8.561900
1922.246200	8.376100
1901.476750	9.427900
1912.991800	8.739100
1902.453833	9.354500
1908.393533	8.972300
1908.805800	8.819800
1912.741083	8.565800
1906.801017	8.850600
1893.544450	9.640300
1902.534183	9.104300
1898.325000	9.352000
1910.973117	8.470500
1904.088233	8.821100
1905.031317	8.708100
1902.024050	8.862400
1900.697217	8.935200
1904.121267	8.727900
1896.428483	9.083300
1898.704067	8.906700
1898.673967	8.887500
1894.073933	9.148700
1894.910883	9.046100
1892.231867	9.103200
1890.970800	9.185200
1883.364900	9.633700
1897.186067	8.811300
1899.125567	8.684700
1896.540283	8.800100
1896.360550	8.671600
1888.862517	9.084900
1897.756550	8.508100
1899.882933	8.367800
1886.749517	9.151500
1881.884517	9.441600
1881.594250	9.310000
1880.366033	9.377000
1881.684150	9.310600
1881.089117	9.329400
1892.832317	8.541600
1887.864850	8.790400
1885.980250	8.782600
1885.317050	8.806300
1885.586317	8.786100
1879.719667	9.126600
1883.876733	8.745200
1888.300383	8.434700
1885.853067	8.541000
1885.375000	8.530300
1881.072833	8.785400
1887.380483	8.409200
1878.617700	8.852500
1875.487717	8.925300
1880.505050	8.614300
1875.079633	8.932700
1878.191517	8.691900
1871.020983	9.015800
1871.825500	8.956600
1872.702100	8.852500
1872.213450	8.872000
1870.739633	8.937500
1871.706950	8.871100
1867.988783	8.959400
1871.196167	8.735700
1873.623833	8.531900
1866.440117	8.963700
1867.317183	8.902700
1874.608467	8.451300
1870.126283	8.675600
1867.768083	8.776700
1857.010783	9.398000
1864.134350	8.948800
1868.817700	8.612200
1866.393133	8.703200
1869.385433	8.504600
1870.554633	8.354900
1863.495500	8.773900
1870.483767	8.348400
1869.309283	8.368700
1870.197717	8.193000
1858.973583	8.819600
1862.747250	8.537800
1861.745483	8.598500
1856.835900	8.893600
1864.545733	8.412800
1856.237450	8.729800
1861.934117	8.371500
1858.276833	8.541800
1864.689350	8.151700
1861.980483	8.289200
1861.735950	8.278000
1857.553033	8.322800
1859.044550	8.218300
1856.500483	8.363000
1847.909167	8.859000
1847.286367	8.816700
1850.943817	8.564100
1850.259800	8.594500
1853.405050	8.386000
1852.695583	8.415500
1847.005900	8.731900
1845.049200	8.760400
1852.256317	8.247600
1850.956100	8.290900
1849.164150	8.414800
1852.832017	8.103300
1845.762467	8.405400
1846.191883	8.333300
1839.337717	8.692800
1838.109300	8.757400
1838.487867	8.755500
1844.629417	8.362500
1842.097350	8.381800
1838.989433	8.541800
1835.029017	8.712000
1843.650517	8.194500
1841.775083	8.293100
1840.185267	8.346600
1835.764683	8.552300
1837.689500	8.406400
1835.730283	8.458400
1832.070233	8.665100
1838.111933	8.303600
1841.132250	8.110600
1820.541583	9.175100
1832.036217	8.462100
1832.764950	8.397400
1829.133767	8.604300
1826.745800	8.662900
1821.277000	8.905600
1827.573933	8.495900
1829.115350	8.406700
1827.778750	8.405500
1827.444900	8.346400
1830.060800	8.138500
1826.111500	8.313400
1826.231300	8.296600
1830.456883	7.963700
1823.894433	8.342000
1819.830633	8.585900
1828.192417	8.065800
1825.593483	8.060600
1816.905850	8.560300
1821.396400	8.302900
1815.104467	8.685600
1811.921767	8.749500
1815.058833	8.558000
1814.857500	8.546800
1818.192267	8.346600
1809.783300	8.845600
1815.377033	8.510900
1820.870767	8.051100
1809.988700	8.647300
1810.656167	8.574600
1807.570150	8.752600
1814.221000	8.350300
1818.164000	8.103400
1811.450283	8.507900
1810.142700	8.583100
1818.375767	8.023800
1817.031917	8.144100
1815.264583	8.204300
1810.544867	8.239200
1807.351433	8.378900
1807.061567	8.351700
1809.110017	8.209200
1804.583367	8.441100
1811.250867	8.049300
1806.841300	8.233600
1814.610967	7.745100
1804.834600	8.292100
1797.900000	8.691700
1804.778167	8.277600
1806.332133	8.172800
1801.412000	8.298700
1800.598717	8.313900
1799.985317	8.320200
1798.424883	8.399300
1804.014667	7.943700
1801.770783	8.009300
1798.581517	8.171700
1796.449817	8.257200
1801.548717	7.931400
1794.754333	8.333300
1793.620867	8.328000
1796.365967	8.158200
1789.134467	8.580600
1788.423033	8.613200
1788.744117	8.574600
1795.991317	8.087400
1798.822500	7.872100
1800.897933	7.664000
1787.980950	8.406700
1792.090733	8.151200
1794.714500	7.979500
1787.535917	8.270400
1793.509133	7.874900
1792.328367	7.881600
1793.327467	7.793700
1788.789267	8.040900
1790.799300	7.917100
1782.131267	8.300100
1782.305717	8.252700
1781.195650	8.235100
1784.674183	8.021900
1787.658450	7.841800
1789.482583	7.716500
1777.032417	8.349000
1784.829583	7.820300
1795.976267	7.132200
1781.978150	7.951600
1780.402200	7.997200
1783.111400	7.804900
1773.249767	8.349000
1774.672467	8.234400
1772.446317	8.348400
1768.627383	8.570900
1767.102000	8.641000
1763.886867	8.681400
1769.263083	8.348300
1766.807583	8.426000
1765.008567	8.556000
1775.745417	7.903200
1772.101117	8.112300
1765.065767	8.394300
1764.630450	8.388700
1768.768917	8.072100
1764.641867	8.319000
1777.055717	7.556100
1775.552617	7.624500
1764.276383	8.179100
1772.144250	7.699300
1767.653983	7.946900
1762.290417	8.239800
1771.148867	7.624500
1764.286317	8.001600
1764.383267	7.954200
1771.862083	7.468400
1764.382183	7.880300
1755.296050	8.406400
1763.198317	7.878900
1758.249850	8.039200
1759.342217	7.938000
1755.898817	8.117400
1761.093233	7.803500
1755.828883	8.019800
1751.930750	8.225800
1757.788817	7.799400
1753.867683	8.019200
1760.881900	7.574500
1761.296517	7.516500
1752.609183	7.955300
1750.995383	8.015000
1761.073750	7.336000
1755.580500	7.628500
1748.824917	7.994100
1751.870983	7.798700
1747.008983	7.946900
1751.262500	7.635700
1752.416667	7.557000
1750.184350	7.677100
1741.514800	8.083600
1751.330033	7.448300
1744.497433	7.814000
1733.934367	8.450400
1756.757317	7.121700
1741.758933	7.996700
1743.486367	7.861200
1742.628517	7.793700
1740.098633	7.928600
1745.493683	7.539200
1746.304983	7.463900
1733.047783	8.244800
1728.766383	8.481200
1733.940483	8.028200
1730.793033	8.207000
1728.293133	8.343800
1729.417667	8.274600
1734.117983	7.944200
1736.475350	7.791400
1732.351300	7.990300
1733.239700	7.932400
1740.961217	7.449900
1737.596117	7.641600
1724.285950	8.301400
1733.727050	7.697500
1726.432667	8.046600
1723.093917	8.235000
1730.169533	7.800500
1732.804233	7.603100
1729.691050	7.688200
1731.427467	7.561200
1727.524233	7.775600
1724.175733	7.966100
1719.343050	8.173900
1717.678167	8.211300
1727.093450	7.636600
1728.786900	7.472800
1718.638950	8.080000
1720.299133	7.958300
1721.147000	7.882900
1717.522633	7.977200
1713.239483	8.206400
1725.025583	7.463900
1717.055267	7.928700
1715.380117	8.020800
1713.972017	8.104500
1718.194717	7.707600
1715.440250	7.851100
1714.500783	7.904000
1719.032550	7.617700
1720.371967	7.404900
1709.111217	8.041800
1710.211883	7.893800
1703.689533	8.289200
1721.277417	7.203000
1710.262017	7.881600
1707.899867	7.910100
1706.076250	7.964200
1709.121083	7.764200
1699.838517	8.305200
1709.831717	7.711200
1704.904733	7.984700
1704.008650	7.957900
1703.044683	7.911200
1706.962767	7.677000
1713.224717	7.281300
1710.826817	7.384800
1700.012700	7.893400
1708.681483	7.377800
1704.629000	7.563400
1700.848050	7.774900
1706.174500	7.463200
1721.617033	6.528500
1698.320883	7.805000
1703.338133	7.513100
1703.879067	7.461300
1689.617217	8.281200
1690.581617	8.102100
1691.925450	7.975300
1698.530317	7.496700
1690.464367	7.991100
1713.489133	6.618200
1697.886733	7.508600
1693.843533	7.624400
1695.200400	7.495300
1697.325483	7.333100
1698.743850	7.221700
1688.355083	7.817000
1687.650750	7.852300
1697.372133	7.213100
1697.322000	7.170700
1696.715817	7.167900
1692.903833	7.369700
1691.577867	7.417800
1691.839067	7.252800
1683.102417	7.759800
1680.812317	7.821900
1681.959633	7.742900
1688.775517	7.254600
1689.350450	7.225300
1687.329533	7.323800
1681.550633	7.657400
1679.337750	7.627000
1674.242633	7.916600
1674.677650	7.901500
1688.353250	7.073800
1678.563733	7.509800
1681.171383	7.294100
1669.932767	7.874400
1670.101083	7.898000
1673.660183	7.672400
1671.987917	7.763400
1669.477867	7.825500
1667.051617	7.893300
1665.246567	7.997100
1668.094433	7.836500
1661.986533	8.192300
1661.737217	8.183700
1670.656983	7.661900
1672.040183	7.418600
1672.756400	7.371400
1673.325567	7.313700
1663.577050	7.898800
1660.481050	7.921600
1658.613750	8.020600
1658.072900	7.985800
1657.529567	8.006400
1660.702950	7.802200
1663.396350	7.658500
1649.079717	8.321100
1659.556233	7.738400
1659.714667	7.730100
1661.133317	7.630500
1664.280200	7.393000
1672.536367	6.877800
1659.980183	7.520300
1661.922867	7.404300
1658.812267	7.588500
1667.114183	7.070600
1661.707967	7.313400
1648.940567	7.955100
1655.769283	7.496900
1651.557133	7.682900
1652.343617	7.620600
1653.419150	7.523500
1648.841900	7.786600
1648.056317	7.694700
1647.136383	7.724900
1657.156750	7.042000
1650.490000	7.432900
1649.985567	7.456200
1653.472483	7.222100
1649.651717	7.297800
1652.559667	7.069200
1647.311683	7.338500
1642.083733	7.631300
1646.829617	7.345500
1646.824217	7.337400
1644.012933	7.520300
1639.753133	7.745000
1626.900917	8.338500
1627.629917	8.258100
1641.642950	7.403500
1636.423817	7.671300
1635.811683	7.694000
1636.546867	7.620600
1632.627333	7.862300
1633.404717	7.810800
1632.660150	7.859200
1631.591567	7.910100
1634.617267	7.730100
1640.571683	7.356500
1640.679667	7.293900
1638.786400	7.203700
1634.339483	7.424300
1637.749183	7.152200
1631.478067	7.495800
1641.251050	6.889600
1629.737717	7.582500
1631.547067	7.425300
1629.813567	7.513800
1631.034417	7.413300
1637.980150	7.026100
1629.077100	7.516600
1627.050200	7.624000
1624.541133	7.600700
1628.524900	7.342600
1624.804667	7.537800
1631.215900	7.147300
1625.758950	7.359700
1625.738533	7.281500
1630.991783	6.935900
1621.276567	7.465200
1620.398083	7.506800
1619.622417	7.556700
1626.604600	7.119100
1623.673317	7.153200
1620.847667	7.285800
1623.971217	7.047300
1622.228050	7.153900
1619.423633	7.311200
1622.505967	7.103700
1618.842950	7.250200
1624.722650	6.882400
1617.980633	7.251800
1613.020933	7.543700
1615.741217	7.326300
1615.329533	7.313000
1619.587600	7.013800
1616.552700	7.180600
1611.874233	7.438100
1610.027050	7.553800
1609.813483	7.437200
1605.604283	7.643600
1609.089433	7.357700
1613.087467	7.100100
1602.402500	7.716100
1611.908817	7.149000
1611.008800	7.144600
1601.372167	7.602600
1608.051317	7.181100
1600.231650	7.597000
1602.887800	7.409500
1605.938433	7.216100
1599.501233	7.575200
1600.239150	7.373500
1600.363467	7.365600
1600.581883	7.338500
1596.176250	7.598500
1596.167967	7.459200
1597.720967	7.322400
1602.034650	7.005100
1590.497783	7.703900
1591.749850	7.612600
1591.635300	7.615900
1586.004633	7.830200
1591.995867	7.445700
1595.075483	7.195100
1593.458050	7.261900
1597.358783	6.996500
1591.398417	7.348800
1596.288850	6.904000
1589.925867	7.273800
1597.741517	6.769500
1594.350100	6.964300
1582.447667	7.652100
1587.841133	7.279700
1591.255650	7.054900
1589.644433	7.081400
1591.332767	6.970200
1588.201017	7.152300
1587.113383	7.205600
1579.213450	7.522300
1576.155100	7.685200
1585.994283	7.044800
1579.423917	7.422600
1578.450883	7.470800
1587.985183	6.898400
1577.940583	7.329200
1576.249617	7.397100
1573.477017	7.567500
1575.112350	7.462600
1573.434417	7.463400
1575.507333	7.290800
1592.317433	6.261500
1577.154100	7.114900
1580.280700	6.898600
1572.858750	7.351900
1588.000100	6.366400
1577.696067	6.979200
1575.931383	7.085000
1573.162383	7.224500
1571.175483	7.265600
1573.433117	6.998100
1570.008100	7.185400
1570.517217	7.120500
1572.571600	6.958600
1565.532367	7.320000
1567.142967	7.224600
1567.562317	7.187400
1569.103267	7.083600
1568.669983	6.953900
1570.537583	6.827300
1564.862317	7.163700
1568.687633	6.951800
1564.795117	7.025700
1560.827767	7.203300
1560.782517	7.161000
1558.498150	7.309300
1566.930367	6.796500
1567.101567	6.767100
1564.981917	6.841500
1561.561683	6.997100
1561.147017	6.968400
1560.316933	6.986600
1572.724017	6.198600
1566.956250	6.546100
1574.580517	6.057000
1564.848600	6.611800
1561.078200	6.744100
1556.951000	6.830800
1552.463183	7.079000
1547.225733	7.343300
1552.046450	7.031800
1554.405250	6.840100
1555.128267	6.767100
1550.977650	7.015000
1549.101117	7.113600
1549.530967	6.940200
1550.681617	6.841500
1545.804917	7.090200
1550.234767	6.828000
1547.936150	6.847600
1546.979033	6.879800
1540.675800	7.168900
1543.090400	7.025200
1543.923350	6.974800
1539.572283	7.216100
1544.990750	6.782500
1539.511800	7.058800
1547.317050	6.550000
1542.428550	6.842800
1542.369950	6.830800
1542.539600	6.810700
1543.203350	6.697300
1538.202867	6.908400
1536.918050	6.973300
1542.578467	6.627900
1533.811267	7.070700
1538.439817	6.714600
1536.689317	6.786000
1536.893700	6.724000
1539.238217	6.590700
1535.186717	6.828000
1529.342867	7.147200
1529.524300	6.996400
1528.467717	7.042200
1527.169500	7.091500
1532.779450	6.745600
1524.690650	7.239700
1526.379433	7.133000
1525.695350	7.098100
1527.712983	6.921200
1524.722200	7.037800
1525.302033	7.008200
1527.152700	6.885700
1523.194250	7.102000
1527.439150	6.691600
1522.544783	6.942800
1525.579283	6.759800
1531.998250	6.362500
1522.245033	6.859400
1521.307817	6.831300
1520.413617	6.846000
1530.090750	6.226600
1516.788350	6.992800
1521.178100	6.727900
1517.961567	6.882000
1510.447850	7.179100
1511.174533	7.117700
1513.682950	6.906700
1516.814350	6.700600
1521.560450	6.432400
1517.755917	6.663600
1513.882650	6.724600
1512.368200	6.804700
1496.982867	7.721700
1507.254100	7.109800
1508.063467	6.939900
1506.200500	6.995200
1510.955317	6.635700
1512.554600	6.539800
1511.035333	6.618200
1508.383450	6.788500
1499.318850	7.261300
1508.800850	6.603400
1506.301833	6.711800
1509.223850	6.495100
1509.901450	6.435400
1505.676717	6.665400
1507.271100	6.552400
1503.928600	6.694600
1505.099283	6.605300
1501.971767	6.781200
1499.141767	6.929700
1501.099567	6.773100
1503.472483	6.598100
1506.189067	6.375900
1502.493983	6.602000
1502.702900	6.543700
1504.118683	6.427100
1499.656383	6.560000
1497.108767	6.686400
1503.046950	6.277300
1503.317450	6.224200
1491.842733	6.859400
1500.131517	6.361800
1478.004850	7.677700
1486.282933	7.164200
1498.580683	6.251000
1495.243483	6.413900
1491.428433	6.607700
1493.255350	6.446800
1495.520933	6.282500
1497.889067	6.131700
1486.910217	6.765000
1491.481033	6.469400
1489.014667	6.573600
1494.225017	6.156600
1491.069183	6.308300
1483.165783	6.717800
1482.688000	6.744100
1480.991617	6.856800
1486.286267	6.523800
1484.553750	6.446500
1483.333667	6.532500
1477.068333	6.890900
1478.590983	6.788600
1477.482167	6.724200
1478.344967	6.645600
1470.796283	7.039100
1477.028267	6.653700
1462.105733	7.541300
1470.163750	7.054300
1474.607683	6.681800
1470.930667	6.815700
1469.391983	6.872600
1478.717700	6.292300
1469.967167	6.804000
1468.684600	6.871900
1473.636517	6.523800
1466.729467	6.919800
1471.822950	6.590200
1465.914283	6.939200
1468.961383	6.711200
1471.009700	6.457300
1469.087650	6.529900
1463.954667	6.782100
1467.220633	6.564200
1461.472400	6.893500
1467.486950	6.529900
1472.377883	6.232700
1473.481950	6.151000
1469.352050	6.174100
1462.355233	6.567500
1463.704500	6.479500
1455.875983	6.943400
1467.858083	6.151400
1467.161033	6.185300
1468.899183	6.071000
1465.085633	6.267800
1460.363817	6.450300
1463.190033	6.200300
1464.351150	6.041200
1461.864100	6.182500
1463.709700	6.062200
1458.889083	6.316100
1451.750733	6.668000
1448.763967	6.717000
1451.791533	6.521000
1447.937283	6.692300
1450.159283	6.561200
1445.463833	6.840200
1457.218400	6.121000
1452.018817	6.287700
1453.892083	6.137300
1456.574217	5.904900
1449.386250	6.328000
1453.996833	6.038600
1446.176417	6.473100
1440.299433	6.645200
1445.282650	6.349600
1440.581517	6.621900
1448.322300	6.150700
1448.247550	6.079000
1447.311567	6.127800
1437.757433	6.677600
1443.336733	6.341900
1443.764283	6.240500
1434.734783	6.759200
1443.748617	6.186000
1446.720033	5.961200
1434.185683	6.679400
1429.950367	6.915000
1433.061817	6.713400
1437.400183	6.452300
1434.914233	6.576200
1429.836283	6.744800
1436.181233	6.371300
1435.485667	6.377700
1436.004333	6.353300
1432.662150	6.427000
1432.727400	6.406300
1430.668400	6.456100
1430.097133	6.472100
1431.174367	6.401700
1424.232567	6.807000
1424.196983	6.704900
1429.124967	6.357300
1429.824050	6.267400
1423.577350	6.615700
1419.646983	6.851600
1421.271950	6.742600
1423.586700	6.578800
1418.631217	6.862200
1420.943350	6.642700
1424.449400	6.421600
1418.079083	6.748400
1419.547800	6.656800
1420.118767	6.562200
1422.664800	6.386800
1424.182833	6.282500
1425.624867	6.188100
1419.031050	6.499300
1414.457283	6.664100
1418.014600	6.418900
1414.236667	6.608400
1423.012433	6.071900
1413.472267	6.625200
1410.626933	6.788300
1423.409317	5.976000
1422.559367	6.005700
1418.414917	6.213900
1413.070267	6.523800
1418.032083	6.054800
1413.523283	6.302600
1410.584433	6.414200
1415.154933	6.129500
1408.452667	6.493800
1413.584717	6.183900
1412.896367	6.125100
1412.167600	6.056200
1413.303433	5.967800
1409.175117	6.195300
1408.368550	6.199300
1405.992383	6.326000
1408.357833	6.037700
1398.786133	6.574400
1409.819033	5.887400
1404.735933	6.194600
1404.513950	6.096100
1393.529167	6.697500
1397.767383	6.412400
1402.161267	6.107400
1402.680583	6.088400
1396.328983	6.445400
1396.513833	6.420800
1388.147517	6.765000
1392.857983	6.491600
1389.946117	6.674400
1392.999733	6.476600
1400.631750	5.973400
1402.377733	5.859200
1402.624017	5.802600
1396.565783	6.123200
1397.652017	6.011100
1390.125733	6.458000
1391.489700	6.265600
1395.260367	5.982000
1402.265400	5.485300
1391.507250	6.085300
1395.402667	5.813100
1389.118333	6.190700
1392.514617	5.930700
1390.869233	5.976200
1394.632817	5.703600
1384.627600	6.228700
1380.312033	6.481100
1380.563133	6.466400
1388.255783	5.963600
1387.960117	5.838600
1384.682733	5.989400
1384.592517	5.986200
1382.142667	6.099300
1385.471750	5.788900
1374.850783	6.404000
1375.878833	6.282500
1383.032783	5.855600
1382.340833	5.887400
1382.517517	5.873400
1383.488433	5.674100
1379.791067	5.847600
1381.671150	5.662300
1379.096050	5.797300
1376.717550	5.922100
1371.199650	6.238600
1365.015217	6.483900
1370.550833	6.144200
1371.287750	6.093700
1370.571500	6.140500
1371.652917	6.037500
1372.080100	5.973700
1388.734250	4.945000
1378.005800	5.556700
1366.131317	6.228600
1372.281367	5.856300
1366.925317	6.117900
1364.209883	6.158600
1367.248533	5.933300
1368.472567	5.817900
1367.471200	5.888800
1368.468400	5.790100
1364.520700	6.010600
1360.344150	6.108400
1361.062550	6.022900
1361.251683	6.003500
1362.042600	5.947600
1359.255450	5.988100
1360.525200	5.887600
1351.757300	6.343300
1354.202633	6.186200
1350.727867	6.389100
1357.767533	5.967800
1356.167600	5.949700
1348.829283	6.327200
1355.700633	5.887400
1352.208250	6.106000
1359.871800	5.648500
1358.257467	5.721900
1343.935950	6.397900
1345.318850	6.343000
1348.601217	6.167100
1346.900167	6.206400
1343.770167	6.302700
1347.225983	6.019700
1346.902050	6.002500
1345.121200	6.087400
1350.245817	5.760600
1344.201333	6.098600
1338.721333	6.420800
1342.564067	6.055500
1338.467617	6.283200
1346.188567	5.810400
1343.681650	5.926600
1345.402333	5.684600
1343.165200	5.786800
1346.856917	5.506200
1351.131883	5.242100
1332.503233	6.311000
1339.940583	5.865500
1329.943600	6.336400
1338.428783	5.804300
1332.546033	6.070100
1335.024317	5.904900
1334.841517	5.900700
1329.692117	6.237300
1339.508367	5.524200
1333.861983	5.798600
1337.859867	5.537700
1325.161217	6.268500
1330.526650	5.926600
1332.075700	5.835700
1336.364183	5.522600
1330.498300	5.739400
1324.538450	6.081700
1325.357100	6.020200
1331.912400	5.607400
1322.207183	6.044300
1320.598300	6.140500
1325.217500	5.789500
1324.231800	5.845000
1326.704717	5.668800
1322.333817	5.940600
1320.544683	5.934800
1313.624867	6.319200
1311.152750	6.379000
1306.156150	6.691600
1309.814217	6.486000
1315.444383	6.152300
1311.741983	6.222200
1316.786500	5.906800
1314.827533	5.978300
1309.745900	6.311500
1309.099533	6.242000
1313.008700	5.949400
1306.885717	6.286200
1305.550467	6.344100
1307.453717	6.218100
1312.753700	5.895100
1313.308433	5.790200
1312.951483	5.709500
1316.672917	5.441100
1309.819817	5.821800
1306.858417	5.997000
1309.577917	5.823000
1316.423250	5.394100
1310.335917	5.607900
1307.206767	5.761500
1303.464450	5.976400
1310.868667	5.514300
1306.538950	5.675800
1311.970717	5.304300
1314.051300	5.082400
1312.839617	5.163600
1314.412700	5.032900
1300.947983	5.826800
1306.467550	5.322700
1297.587650	5.819800
1298.109400	5.789500
1299.480333	5.661800
1282.484667	6.513300
1283.999250	6.438400
1295.540800	5.731300
1295.289933	5.704400
1295.667900	5.674900
1297.807667	5.496900
1298.787800	5.416000
1300.556583	5.289800
1290.087650	5.893600
1296.932317	5.424300
1287.886833	5.942000
1286.804967	5.995800
1296.441800	5.428300
1292.611900	5.660500
1294.919917	5.499000
1292.833783	5.402600
1287.709217	5.707500
1288.165583	5.678000
1286.944217	5.743800
1285.416550	5.718700
1292.399917	5.239500
1287.657767	5.445900
1286.775483	5.490200
1288.795367	5.358000
1284.288483	5.621600
1280.467800	5.755900
1279.327567	5.748600
1292.880167	4.929300
1284.140567	5.431500
1283.595300	5.422300
1285.202133	5.271500
1278.379733	5.636300
1273.296050	5.893600
1271.375967	5.982900
1276.428817	5.678400
1283.419017	5.266500
1279.542667	5.346600
1269.023783	5.935400
1270.002967	5.873400
1269.280333	5.893100
1267.266533	5.999900
1279.211917	5.283300
1271.057500	5.635600
1272.473617	5.528700
1265.047283	5.938100
1276.120433	5.281400
1273.422400	5.315200
1273.915100	5.236000
1262.133117	5.879700
1265.843283	5.659400
1260.569400	5.968600
1263.807617	5.776500
1274.100500	5.128600
1266.268367	5.583900
1269.420383	5.360900
1267.728750	5.453800
1264.893217	5.569200
1263.706133	5.500400
1253.854133	6.074600
1258.171983	5.770400
1255.044717	5.955900
1261.023150	5.573800
1263.100683	5.431400
1266.755750	5.079400
1255.236367	5.745300
1265.015083	5.055200
1263.590383	5.136500
1259.985883	5.312900
1261.215600	5.213200
1260.151117	5.137500
1256.533033	5.296400
1249.015183	5.699300
1250.992283	5.549900
1244.576450	5.923000
1252.357117	5.461200
1252.587950	5.393500
1244.057817	5.796000
1248.607650	5.532100
1243.546050	5.803900
1247.414833	5.585300
1242.606933	5.799200
1256.724583	4.949000
1253.375817	5.111100
1246.026517	5.539200
1241.627750	5.647900
1236.489683	5.928500
1239.260200	5.726500
1240.549700	5.628400
1237.609600	5.788300
1246.254767	5.271000
1239.654817	5.685600
1234.309767	5.995800
1245.733617	5.181000
1240.493817	5.430000
1235.469567	5.679300
1235.715200	5.637400
1231.236533	5.895800
1230.923483	5.907500
1235.080800	5.574400
1234.363600	5.604400
1229.995633	5.836700
1242.323950	5.095300
1237.993050	5.238700
1237.332533	5.192900
1234.489800	5.328700
1238.290217	5.037000
1229.545183	5.543600
1235.436317	5.166600
1228.069283	5.593700
1226.967650	5.475700
1224.269900	5.631400
1228.696933	5.369900
1226.695617	5.466900
1224.699833	5.440700
1218.439683	5.782700
1218.219050	5.734000
1219.390617	5.666700
1231.618483	4.907000
1223.935767	5.372700
1216.500617	5.748900
1218.201600	5.640100
1218.040817	5.590200
1216.424817	5.679900
1225.820100	5.118100
1214.152283	5.801300
1209.044000	6.030700
1219.278150	5.351200
1228.437683	4.688000
1217.635333	5.352200
1216.076483	5.440700
1216.125650	5.443900
1219.231533	5.189300
1210.177233	5.606600
1207.629650	5.747500
1220.964600	4.946800
1213.271850	5.373100
1210.326700	5.418400
1215.027467	5.122500
1209.413700	5.372500
1208.279567	5.430300
1205.230600	5.591500
1210.295083	5.292200
1206.260800	5.407300
1198.543550	5.812300
1203.371850	5.527900
1208.572617	5.205300
1210.153167	5.092800
1212.732000	4.888600
1205.111883	5.296400
1206.760067	5.188800
1212.199550	4.853200
1204.268933	5.319500
1202.969433	5.296400
1202.705750	5.188900
1204.337033	5.044700
1208.961983	4.721600
1198.698917	5.331900
1198.583883	5.317400
1195.604150	5.473900
1197.651900	5.302000
1205.123517	4.819500
1203.444417	4.897800
1201.261683	4.987700
1197.758050	5.184100
1198.795567	5.113200
1194.213717	5.324400
1200.884633	4.901600
1200.742617	4.885200
1204.260567	4.660500
1192.013600	5.213800
1190.523017	5.260500
1207.425350	4.184500
1195.721850	4.846000
1185.386400	5.432800
1187.043683	5.327300
1185.295767	5.304600
1190.901517	4.939200
1190.084400	4.934500
1191.901667	4.833600
1185.128633	5.185100
1183.429383	5.218400
1178.519183	5.493500
1180.457100	5.365300
1184.066617	5.158500
1181.474200	5.298100
1180.231933	5.359400
1185.113433	5.066900
1185.558900	5.014000
1185.844933	4.844300
1183.347117	4.988700
1181.698133	5.044700
1174.345700	5.465800
1176.224550	5.200900
1173.104250	5.402800
1167.030850	5.756500
1166.469083	5.787500
1171.136400	5.362900
1166.135767	5.660100
1171.934667	5.294700
1173.485950	5.165800
1174.541650	5.048200
1170.626317	5.258400
1171.572433	5.183300
1176.232867	4.866300
1170.905583	5.147600
1178.928717	4.600200
1177.550033	4.634000
1165.640733	5.335400
1172.690700	4.855900
1171.616850	4.785100
1168.436817	4.938300
1169.570017	4.838400
1164.055450	5.131600
1163.034450	5.174800
1164.335233	5.070500
1162.750100	5.048500
1161.827550	5.079100
1160.293517	5.070900
1167.558667	4.638600
1157.023383	5.250800
1163.241333	4.870400
1162.839633	4.712000
1149.562283	5.522600
1160.922450	4.828600
1164.093033	4.642400
1159.853383	4.777700
1156.813617	4.883700
1158.927733	4.688000
1152.884550	5.036800
1156.916417	4.788000
1154.854850	4.891300
1154.056583	4.910600
1153.752300	4.792900
1150.057017	4.991400
1146.187383	5.219300
1148.823683	5.028500
1139.849450	5.464300
1146.238267	5.067900
1145.788217	5.041200
1137.461367	5.533500
1145.195017	5.090100
1143.540717	5.191500
1150.142783	4.652000
1145.034217	4.917300
1147.853433	4.700600
1143.593317	4.943700
1136.029350	5.410600
1133.317717	5.557500
1141.736400	4.926700
1135.233967	5.295300
1142.191917	4.908300
1137.995117	5.131500
1134.438283	5.245700
1135.103317	5.153400
1133.157117	5.191500
1140.996750	4.737400
1135.634917	5.043900
1142.607350	4.628800
1135.371483	5.001800
1138.674083	4.670000
1130.304600	5.131900
1126.985917	5.334900
1129.566233	5.184500
1131.231650	5.096200
1142.762633	4.411100
1138.261000	4.661800
1134.525850	4.843600
1129.117200	4.934200
1132.077617	4.732800
1129.353533	4.872500
1124.675067	5.124600
1128.480733	4.880300
1131.808950	4.654600
1128.288483	4.847000
1131.987150	4.597900
1128.017600	4.752400
1129.013517	4.647300
1128.542967	4.652100
1120.264100	5.106100
1124.317317	4.868100
1125.274283	4.789100
1120.092267	5.078400
1119.165000	5.108800
1124.515200	4.711600
1123.211833	4.709600
1121.716400	4.774900
1116.811083	5.041400
1115.614683	5.036300
1120.626983	4.566200
1119.866333	4.581500
1109.811483	5.165600
1115.566283	4.797800
1115.547683	4.667600
1117.879717	4.492200
1113.010000	4.767700
1103.053567	5.356200
1116.583400	4.538500
1112.305867	4.771200
1116.476483	4.435700
1116.864983	4.354100
1118.478683	4.202600
1109.496450	4.716700
1109.681733	4.694600
1103.352767	5.051100
1110.869967	4.646100
1110.442667	4.645500
1110.772733	4.613900
1117.682417	4.179300
1089.677517	5.477400
1100.204217	4.821900
1094.638267	5.134200
1099.391600	4.856500
1102.429983	4.558400
1103.617650	4.432600
1099.637850	4.636300
1097.852567	4.713900
1094.912933	4.888100
1096.591267	4.788300
1101.919683	4.468700
1091.031067	5.118600
1094.436417	4.863900
1103.138000	4.203400
1093.132100	4.764700
1086.738383	5.136500
1090.472350	4.907500
1094.793633	4.607900
1082.122550	5.351500
1093.884100	4.653100
1091.304950	4.788400
1097.572083	4.250900
1095.446250	4.367500
1093.456850	4.446700
1090.352450	4.602400
1091.159783	4.379900
1084.807833	4.688000
1080.145983	4.952600
1083.302933	4.752200
1087.365667	4.455000
1080.949050	4.824400
1088.342833	4.256300
1076.643417	4.887300
1075.837717	4.920300
1081.507417	4.575900
1078.559183	4.710500
1076.753133	4.796600
1083.785917	4.374300
1078.585050	4.684300
1071.967117	4.958100
1068.174983	5.012600
1074.480317	4.614600
1078.245900	4.371400
1077.569250	4.384600
1071.680283	4.707200
1069.898700	4.824400
1079.426917	4.230900
1074.213333	4.523900
1068.158033	4.626800
1067.205233	4.651700
1070.559183	4.445600
1070.647633	4.416800
1074.485350	4.162000
1077.543383	3.967700
1063.329417	4.806000
1065.841383	4.637000
1052.635933	5.163200
1057.217400	4.856500
1054.363883	5.027900
1056.244733	4.915700
1062.287100	4.560400
1064.643433	4.407500
1050.657217	5.254500
1056.597633	4.872800
1063.847383	4.415300
1059.932800	4.662100
1061.939517	4.466400
1062.172733	4.373300
1059.613883	4.504400
1059.754350	4.486600
1059.608517	4.486500
1056.114750	4.691200
1057.686033	4.520900
1060.382233	4.210400
1043.735367	5.153100
1055.013017	4.474500
1048.824717	4.843800
1051.466517	4.660200
1061.509017	4.034100
1044.257867	4.808700
1053.355467	4.234500
1055.685233	4.089500
1049.323833	4.447400
1047.653150	4.422100
1045.829800	4.474900
1048.663883	4.291100
1048.863750	4.279600
1049.753967	4.198500
1043.280750	4.561600
1048.235517	4.247400
1046.345100	4.368100
1042.614900	4.575400
1042.921767	4.535400
1044.548217	4.374900
1036.403967	4.778700
1044.617767	4.266300
1043.749900	4.307800
1044.052983	4.262000
1044.504633	4.184000
1033.817217	4.756200
1034.272850	4.559200
1040.635400	4.166800
1034.216150	4.520200
1034.453167	4.495500
1030.534217	4.728900
1034.456500	4.509700
1036.814150	4.327900
1032.592133	4.561400
1035.760333	4.372700
1033.710600	4.433800
1021.357783	4.864400
1023.283900	4.725100
1026.937250	4.488700
1027.106117	4.468500
1029.907067	4.299900
1027.323767	4.407300
1025.563033	4.324400
1021.609733	4.555400
1026.274117	4.267800
1022.156150	4.484500
1016.170500	4.799200
1019.536383	4.588400
1016.630617	4.726500
1028.539933	4.022600
1020.674400	4.439800
1019.388217	4.462800
1020.797383	4.347800
1014.762017	4.646100
1018.771700	4.371100
1021.111650	4.226500
1025.128567	3.931800
1019.025233	4.298300
1010.139900	4.800400
1006.905250	4.803400
1012.627450	4.453000
1011.779850	4.478200
1014.881100	4.303900
1023.694683	3.733400
1009.630683	4.567400
1012.477050	4.386700
1009.211567	4.596000
1011.185983	4.186700
1010.849250	4.150600
1004.188850	4.543300
1004.722983	4.499900
1003.629300	4.579600
1001.215850	4.696300
1005.664733	4.436300
1004.644067	4.491300
1005.624300	4.233100
995.772217	4.674000
1005.792533	4.069100
1000.095883	4.394900
1004.831767	4.096500
1005.319333	4.041800
1008.899333	3.692300
1005.008283	3.785900
999.442050	4.090900
990.511250	4.623100
994.894150	4.363600
998.152833	4.057400
996.111500	4.153000
993.123600	4.327000
994.571317	4.242600
997.796150	4.055500
985.713183	4.774400
997.957383	4.050500
999.542600	3.956200
986.812717	4.563300
987.499733	4.508900
990.467267	4.318800
996.537967	3.930300
979.850317	4.777200
986.934400	4.321600
981.937300	4.612000
989.024717	4.182000
989.193617	4.029600
987.777733	4.056200
989.196000	3.936700
985.661717	4.147500
977.894000	4.564600
982.374217	4.283100
983.603983	4.192700
983.001883	4.222100
982.230133	4.253600
981.387883	4.286600
978.648750	4.417000
981.735067	4.094100
977.553250	4.320100
981.044800	4.085200
978.760467	4.199400
981.645917	3.960000
975.650500	4.278100
975.924850	4.217800
975.710850	4.202500
972.867150	4.330000
967.341567	4.625100
973.173000	4.234300
976.399083	4.027100
967.444183	4.436300
969.800050	4.231000
974.388650	3.871900
972.543450	3.957400
978.537300	3.604900
970.480133	4.025300
963.975133	4.266800
958.748833	4.521500
970.797433	3.773300
969.895250	3.748900
966.438317	3.934800
962.491600	4.157200
959.424600	4.318600
968.604450	3.713800
961.688333	4.093100
959.381600	4.197400
957.665033	4.284200
961.675983	3.969800
957.491483	4.200200
953.008017	4.381200
948.602100	4.651300
957.036967	4.116900
956.740967	4.123800
955.369850	4.074700
960.125683	3.735800
956.033567	3.898200
946.940900	4.416100
955.905700	3.888700
954.019800	3.978400
950.969633	4.170500
951.223700	4.134400
938.318583	4.700600
945.127717	4.285500
954.497283	3.684200
945.616900	4.164100
950.782867	3.836400
949.196283	3.897200
946.606483	4.048100
937.671350	4.552300
937.578950	4.532800
945.596250	3.987700
954.440017	3.436500
948.051067	3.782400
940.540750	4.209400
941.799633	4.118900
940.499917	4.173300
939.984017	4.056900
941.648800	3.913300
937.593217	4.122600
931.565200	4.480600
934.582467	4.274400
936.911383	4.135100
938.371050	3.836200
941.845283	3.613400
942.720450	3.540100
940.864433	3.644900
931.134617	4.122300
930.136033	4.124000
925.448200	4.357600
930.625467	4.038300
928.659967	4.168800
925.407783	4.344500
929.650733	4.001300
928.326083	3.981500
925.259950	4.142500
921.379450	4.305100
921.091350	4.330600
911.505950	4.884700
918.573000	4.410400
923.617033	4.008800
919.975283	4.206200
918.642750	4.285600
925.608250	3.844000
919.060900	4.093000
916.258383	4.251500
924.143267	3.730800
927.393083	3.513800
920.736650	3.896800
923.453483	3.721400
919.043567	3.856800
916.001117	3.997800
917.612000	3.848800
916.752950	3.877000
922.970733	3.471200
915.132200	3.924100
926.185167	3.191400
919.475750	3.596500
928.791017	2.978100
923.095650	3.331300
919.040617	3.462300
920.515950	3.290200
907.598400	4.029100
910.109850	3.823600
911.398633	3.757700
918.247317	3.309600
913.193500	3.595300
910.331117	3.630900
909.909667	3.637500
901.614017	4.082700
899.477333	4.210700
903.640767	3.939300
904.721133	3.897800
901.077900	3.941500
905.370967	3.695400
902.242600	3.850900
905.218850	3.656500
904.151900	3.599200
899.237467	3.845700
888.739600	4.387300
891.477933	4.240400
892.885783	4.134800
902.666817	3.554400
892.882167	3.974700
890.840917	4.097100
886.031033	4.373300
895.396150	3.809500
906.538483	3.028400
896.339367	3.564300
889.596583	3.938000
881.720117	4.381200
884.313383	4.263800
887.077567	4.095300
888.982233	3.959000
893.118350	3.553900
889.244050	3.756700
895.309650	3.319600
888.715783	3.708500
886.450967	3.803700
887.755250	3.716200
878.152167	4.167000
879.440750	4.043200
893.811133	3.114500
884.489167	3.669900
885.006667	3.621000
882.457717	3.752400
873.645900	4.142500
877.921167	3.889500
874.460350	4.067800
873.253617	4.138200
882.844750	3.411700
874.299400	3.945100
871.394667	4.126800
870.176667	4.170300
878.856500	3.582400
874.177567	3.790500
864.078067	4.371900
871.033733	3.920900
871.005883	3.881900
867.933683	4.055600
876.597033	3.515600
872.816667	3.740400
867.479200	4.028500
870.913667	3.778500
862.541333	4.271300
865.907717	4.077000
865.798767	4.066500
867.929500	3.851800
868.938700	3.767800
865.183933	3.925700
864.318667	3.960900
871.773083	3.500900
865.163317	3.881700
868.343433	3.583100
859.444167	4.035000
881.796433	2.597000
870.044167	3.274500
865.287917	3.532500
872.030717	3.132000
864.951950	3.474400
862.727683	3.485600
858.965367	3.703500
854.269733	3.967700
857.506900	3.752500
863.026250	3.299500
858.388017	3.558300
850.101717	3.989400
853.271033	3.794300
852.065250	3.865600
851.560050	3.869800
856.801517	3.506100
862.080883	3.142700
851.068300	3.776200
859.733050	3.241600
859.161050	3.239200
852.121433	3.636200
853.941583	3.460700
854.095583	3.454400
860.105117	3.059400
851.028933	3.595700
857.772367	3.023100
853.359483	3.224000
839.861783	4.004300
845.001933	3.643700
847.028000	3.508600
852.834167	3.128100
852.261450	3.069700
843.539883	3.470600
842.462950	3.517300
851.101450	2.973700
843.720450	3.383200
841.478700	3.488800
842.945467	3.376800
832.785550	3.830500
835.131517	3.691500
833.105900	3.807700
843.662467	3.153600
841.442317	3.142500
835.626683	3.481700
835.796000	3.411700
832.684817	3.592500
832.744683	3.583100
834.409817	3.483000
823.160867	4.016700
824.149833	3.917600
826.079833	3.775400
830.071300	3.522400
833.165900	3.334000
842.739033	2.728700
828.808733	3.418700
821.238733	3.821000
824.253533	3.644300
822.529017	3.727500
831.998083	3.122900
824.627417	3.499200
836.913317	2.724000
824.138750	3.431500
829.018883	3.121100
815.858383	3.891500
816.321867	3.821700
817.322033	3.633500
814.218517	3.800700
819.495583	3.419900
825.626867	3.063600
819.355817	3.422400
818.836400	3.453400
820.935033	3.182000
818.387567	3.318300
823.662600	2.996500
817.982467	3.317100
812.803867	3.498900
809.676433	3.664400
808.615283	3.712400
812.863533	3.440300
811.352517	3.539400
809.777133	3.611300
811.372317	3.474300
811.753883	3.341600
806.176867	3.648600
802.624417	3.841200
810.778500	3.325900
809.844017	3.386700
804.284583	3.705800
819.752333	2.713700
822.142833	2.548100
807.869583	3.346100
808.576433	3.265700
800.506583	3.625400
801.114533	3.572300
802.898733	3.397700
797.492700	3.716200
801.230167	3.477000
801.152250	3.469600
796.762267	3.596400
792.116450	3.877900
804.066633	3.107000
800.998667	3.254400
789.913100	3.899200
787.442917	4.049400
789.863100	3.799900
785.737033	3.999800
791.114083	3.653900
798.759117	3.176400
803.280117	2.889900
788.725200	3.738400
788.785633	3.714200
796.989450	3.164500
797.781467	3.104700
798.621717	3.030600
792.957983	3.299600
785.207417	3.648300
796.406450	2.961400
787.446017	3.448500
784.756967	3.564300
783.713100	3.640900
788.939617	3.316800
786.738217	3.303300
791.456850	2.976700
785.886450	3.232900
784.844467	3.292800
786.989850	3.136900
789.900350	2.957200
789.459933	2.882000
788.589050	2.898400
782.560917	3.243900
785.668400	3.042400
781.559433	3.231800
782.853817	3.117300
786.078650	2.873200
781.860217	3.113400
757.835333	4.506200
773.263967	3.585900
781.166150	3.025000
777.551833	3.160400
778.370283	3.090500
775.877167	3.217500
779.087300	2.987800
778.631200	2.934100
771.951750	3.313000
768.595617	3.354000
766.666800	3.460000
771.448567	3.152100
776.230683	2.862800
762.868717	3.606300
763.783750	3.536500
776.912933	2.679200
763.201317	3.500700
765.484583	3.362000
774.487933	2.809700
767.951867	3.072600
774.094083	2.653700
768.471933	2.983400
759.662767	3.504000
772.867750	2.678800
771.167600	2.773900
770.485483	2.576900
761.917517	3.072600
763.437850	2.946700
762.203050	3.033700
763.033550	2.912200
761.738417	2.889300
757.557167	3.051600
757.912350	3.037600
754.215633	3.254600
752.960000	3.311200
749.465267	3.470400
751.728583	3.286400
747.347117	3.536700
745.535633	3.626300
750.995667	3.280500
754.919033	2.909000
762.600883	2.410700
751.954783	2.983400
755.979567	2.732700
742.761150	3.508900
750.912183	3.031400
738.384083	3.694100
747.381767	3.150900
750.527150	2.891200
754.009383	2.693300
742.187017	3.366300
741.067650	3.437200
740.035983	3.460700
746.490017	3.027300
740.651433	3.308600
735.989300	3.543400
744.623450	3.021700
741.031017	3.217800
744.888917	2.899500
734.840000	3.363700
733.888050	3.424000
736.294433	3.284000
737.927783	3.150500
740.863850	2.891800
744.198000	2.702800
732.745283	3.342200
737.477867	3.037200
732.741333	3.272900
725.804100	3.703600
730.090167	3.309000
726.344583	3.483500
730.366983	3.173300
732.672633	3.035300
729.528567	3.194700
736.614233	2.753300
733.256000	2.855800
728.238417	3.148200
735.705550	2.692300
734.613200	2.730100
723.740300	3.256900
738.144083	2.299100
730.632650	2.632000
725.936533	2.897900
722.283767	3.095400
722.829317	3.051600
726.161233	2.835800
719.901517	3.075000
713.048550	3.463900
725.358350	2.660800
718.550267	3.069300
719.369900	3.001000
721.182033	2.862800
711.973433	3.249800
707.862633	3.501800
711.349500	3.270700
709.273000	3.391300
709.675633	3.265700
707.260683	3.356600
719.756900	2.564500
713.580800	2.910400
706.170117	3.343500
704.136867	3.445500
711.348383	2.906300
708.601817	3.001800
699.027767	3.528900
699.776683	3.483500
702.937100	3.271900
710.174417	2.834400
705.116600	3.116800
705.738567	3.041100
705.450267	3.033600
707.523250	2.898700
702.528083	3.144500
705.070800	2.927500
703.077817	2.992800
690.897200	3.629500
700.142717	3.090900
696.859117	3.274500
697.774133	3.206300
699.531033	2.948600
699.712000	2.917300
692.862033	3.277100
697.135883	2.999900
693.737117	3.172800
698.437067	2.877900
697.785233	2.811200
690.933183	3.159200
691.816967	3.091800
689.969783	3.175400
701.230383	2.470400
691.589567	2.964900
687.772367	3.140700
690.107400	2.988100
684.227467	3.315600
690.649633	2.940500
681.115083	3.443900
682.427017	3.292200
684.690483	3.128000
678.290217	3.464400
686.933650	2.942200
686.853800	2.921200
687.786800	2.835100
685.011900	2.891800
683.828367	2.895000
684.579033	2.858000
682.000650	2.998300
680.369733	2.996300
679.168333	3.032000
684.237300	2.582500
678.624150	2.926300
676.208917	3.060000
675.360400	3.105700
676.491317	2.905500
677.286750	2.849500
685.077833	2.345000
675.078383	2.906000
667.535883	3.319700
670.778217	3.118200
680.734500	2.490400
679.427167	2.554500
681.336667	2.411700
674.304817	2.839200
671.114417	2.924100
661.515217	3.368100
665.872383	3.075800
671.071400	2.731300
669.963683	2.770400
668.679350	2.809600
670.964317	2.668200
667.510300	2.729500
662.664733	3.018500
663.451817	2.897100
659.756933	3.120500
660.618100	3.045400
661.026533	3.017900
665.464983	2.689700
661.032733	2.933900
664.439983	2.697200
661.159300	2.903800
656.891383	3.102800
660.780633	2.864300
652.373767	3.285000
654.120000	3.142000
654.268650	3.130300
659.998933	2.763500
667.329217	2.177400
658.482683	2.679500
651.730967	3.062100
647.327317	3.315600
651.795350	2.910700
657.096567	2.533200
659.567883	2.343500
651.127700	2.786200
652.511767	2.712600
657.130400	2.397700
651.711417	2.687400
646.821350	2.882500
648.732800	2.732800
647.938033	2.697200
645.291783	2.820800
648.971167	2.584200
647.871950	2.638000
654.726500	2.175700
647.434650	2.570500
638.718050	3.006100
641.058700	2.874700
641.087500	2.866300
643.853250	2.654800
637.540150	2.915200
639.644650	2.758900
636.182583	2.912600
639.218067	2.671800
639.754400	2.646700
641.707733	2.522900
630.320217	3.051600
630.719967	3.026700
631.285033	2.976800
634.036350	2.830000
635.008367	2.757000
632.703133	2.755400
628.755450	2.977300
623.730200	3.219400
624.809817	3.161700
624.936417	3.120600
632.746367	2.675700
627.510533	2.944100
630.217967	2.732400
614.497017	3.648300
625.462417	2.984700
626.812550	2.874400
626.746433	2.862800
621.864800	3.016600
624.692850	2.823100
616.023617	3.327300
613.596133	3.473300
614.236367	3.321900
613.246533	3.347300
623.906650	2.632000
620.823367	2.818200
618.144300	2.960200
618.586567	2.945400
619.237633	2.831300
619.188333	2.735600
619.931333	2.665100
618.355950	2.748100
617.607617	2.794200
611.369783	3.014900
609.420100	3.112600
610.941767	2.978100
616.341833	2.666900
613.174033	2.832200
608.443500	3.067300
618.069950	2.387200
623.609033	2.032400
612.044833	2.651600
610.830617	2.691600
607.931533	2.862800
611.317567	2.652300
621.729050	1.928200
611.426400	2.461900
600.078800	3.046300
609.698283	2.470700
607.014733	2.617700
605.332817	2.725200
613.075267	2.198400
604.549550	2.682100
612.725750	2.171200
608.014083	2.410400
603.085583	2.637200
599.556000	2.756500
601.352083	2.636600
601.643767	2.599800
595.864583	2.917100
606.741400	2.114200
596.785067	2.696400
595.462317	2.737500
588.989867	3.108900
589.445517	3.028500
594.564433	2.712200
608.202767	1.870800
604.922833	2.049800
596.360517	2.401200
590.116417	2.756700
600.946933	2.069000
585.049100	3.020800
590.947400	2.559400
590.346917	2.540400
590.020533	2.510900
586.297817	2.675100
589.724917	2.481600
592.017383	2.340200
582.106267	2.902800
587.595550	2.524600
580.314050	2.967700
581.494300	2.883700
581.946267	2.832000
580.357833	2.930000
583.273383	2.782700
575.180167	3.057300
581.758717	2.627100
588.128850	2.230900
590.445617	2.097000
580.713367	2.536200
578.881083	2.613800
570.136567	3.075600
579.185383	2.529500
583.556183	2.255000
587.454633	2.007500
577.222683	2.508200
579.561033	2.375000
577.493383	2.491400
579.714483	2.322800
574.746667	2.511300
576.843983	2.333900
584.264817	1.841700
580.121067	2.055000
579.251583	2.090000
574.079650	2.395000
573.337617	2.392200
568.844517	2.546700
573.596350	2.228800
574.892050	2.101900
570.831167	2.325300
571.243383	2.288900
572.149383	2.212400
563.509967	2.682000
560.849417	2.821800
572.772483	2.089400
574.049033	1.994900
559.682367	2.678400
560.702400	2.629900
564.798583	2.345000
569.733083	2.025500
574.490650	1.683700
563.959733	2.293400
560.681683	2.473400
565.707317	2.150700
557.374167	2.492100
561.742817	2.215500
556.458550	2.500900
557.927983	2.398700
547.861017	2.869200
553.338200	2.497600
556.490317	2.278500
551.974833	2.513300
551.037233	2.548100
555.057100	2.336200
554.726483	2.272100
549.697950	2.493100
551.136583	2.394500
538.684300	3.116800
541.265367	2.930100
549.200000	2.469700
549.668200	2.451700
551.880183	2.150600
550.259750	2.225500
546.797400	2.416900
543.911667	2.598300
540.795133	2.662100
549.089050	2.119300
550.720650	1.983700
537.954633	2.722700
541.622250	2.469400
532.550750	3.002200
537.011633	2.638400
539.268850	2.469100
536.814100	2.591800
539.151767	2.434800
541.509517	2.281200
542.098533	2.245100
545.196117	1.902900
537.165983	2.332700
538.518600	2.221600
543.903800	1.893700
531.895300	2.587600
533.812433	2.408600
532.828900	2.446300
530.506417	2.532300
529.914067	2.542200
527.786850	2.643700
525.575383	2.775800
532.712333	2.241500
530.717800	2.341300
531.425833	2.308100
532.732717	2.210100
525.646700	2.504200
525.765550	2.467600
527.190967	2.331300
528.830117	2.229000
516.389650	2.958700
525.837167	2.399700
524.086550	2.353600
527.439417	2.114100
521.651550	2.409100
521.827783	2.366000
521.582700	2.387200
517.552217	2.585700
512.347150	2.815600
517.040933	2.464100
516.957933	2.435300
517.808917	2.346900
519.960833	2.195600
518.542633	2.292800
520.382000	2.155600
512.770967	2.481000
517.891233	2.162600
508.584850	2.646700
507.556850	2.681200
512.618683	2.392400
511.619183	2.457500
513.829850	2.173900
515.815400	2.020300
506.232233	2.566400
504.295683	2.713700
508.458750	2.332600
509.867100	2.200000
509.213550	2.204500
509.926650	2.144200
506.095083	2.357300
509.982733	2.114000
502.366717	2.492100
508.450167	2.107500
487.251567	3.366300
510.615033	1.940300
503.504650	2.246800
512.251933	1.676000
505.197433	2.043800
503.080567	2.111400
497.814900	2.426200
503.912033	2.045300
504.382917	2.004300
497.755233	2.329100
498.448267	2.273100
498.212317	2.156100
491.047450	2.560300
491.463750	2.525800
493.303750	2.400400
490.630567	2.443200
489.607150	2.457100
485.131717	2.684400
487.246733	2.548100
494.678767	2.105400
495.105600	2.083000
477.577483	2.941400
495.048500	1.883500
489.544200	2.205400
490.575900	2.112100
493.741433	1.845200
492.748133	1.878500
489.332067	2.064000
488.068617	2.137500
484.439767	2.285100
476.773683	2.629700
479.320950	2.467600
475.521700	2.643700
471.212167	2.859000
481.752050	2.188300
485.199817	1.993500
486.398700	1.897000
493.993083	1.429400
481.700700	1.972300
483.109167	1.856400
474.332267	2.361900
476.083500	2.239000
466.415450	2.752600
465.910667	2.807700
472.536667	2.373900
472.867417	2.324700
474.975733	2.201900
480.291700	1.862500
469.317750	2.442400
467.002667	2.498100
477.910833	1.845200
471.974033	2.113400
469.157167	2.277900
464.691667	2.529900
468.278967	2.277300
473.482467	1.863600
469.585233	2.045300
465.874467	2.209800
459.685050	2.557900
466.816150	2.134000
467.555867	2.044500
465.995900	2.013100
463.939683	2.102600
470.837100	1.698400
468.222033	1.834700
455.880383	2.495600
452.628267	2.675700
456.893883	2.383700
460.437400	2.152900
465.156867	1.824900
457.507150	2.274100
452.391650	2.416900
448.780900	2.625700
458.101017	2.036700
455.859350	2.172400
451.856850	2.392600
447.950383	2.586500
448.864000	2.500900
452.787533	2.247800
456.911383	1.997300
455.124833	2.078000
453.290400	2.137000
450.822267	2.175300
463.021133	1.424000
454.430600	1.869100
448.164167	2.207100
451.416517	1.994700
446.923400	2.274400
438.898083	2.741300
446.848533	2.255000
443.006667	2.390700
438.448067	2.685300
442.780333	2.408000
450.294733	1.936100
438.835783	2.506100
444.518583	2.180300
441.799400	2.327800
441.440283	2.348000
446.428233	1.925000
448.317350	1.742500
444.676933	1.918700
439.254283	2.185100
433.580583	2.516600
437.051300	2.296300
435.760767	2.297700
431.175517	2.467200
430.474817	2.486700
442.716267	1.732500
435.398067	2.128500
440.969617	1.771800
436.699483	1.999700
431.132733	2.322500
438.481667	1.852200
430.147250	2.294500
448.796917	1.142400
436.628483	1.794500
431.320750	2.095900
434.936217	1.775700
434.528033	1.821500
433.833250	1.859800
436.614367	1.667700
430.143767	1.993800
430.681350	1.916200
437.802283	1.445300
432.067350	1.774600
433.261933	1.577300
418.458800	2.395600
443.415350	0.813700
427.534633	1.755800
430.000067	1.609200
429.155133	1.623500
420.321100	2.077000
416.245083	2.198600
424.153067	1.712400
423.316533	1.737200
418.652933	2.007200
423.238050	1.709500
420.710283	1.830800
413.660900	2.205400
421.249767	1.748400
417.242183	1.961300
417.082283	1.945400
421.166400	1.558900
412.990767	2.013900
413.189533	1.973000
413.089800	1.947100
408.572983	2.190200
415.181017	1.806300
414.610200	1.686400
414.049900	1.676800
409.256033	1.904000
407.092117	2.029500
418.211333	1.289300
413.227233	1.604600
401.622317	2.205000
407.356050	1.789900
405.842033	1.847000
406.579717	1.772400
401.621483	2.066900
396.973350	2.353600
406.676567	1.720200
405.946250	1.668400
392.496617	2.461500
390.148717	2.619600
396.697467	2.228100
399.973250	1.886200
404.457833	1.607000
404.260917	1.609200
400.182783	1.858100
404.857500	1.408600
396.859150	1.861600
397.577167	1.796700
404.334950	1.370200
394.273533	1.893200
395.024383	1.824200
400.064283	1.545200
397.195317	1.704300
392.212867	1.874100
392.847167	1.792800
382.978083	2.354000
382.642567	2.369700
396.317300	1.535800
384.778933	2.202500
395.841533	1.502600
392.617000	1.586500
388.309017	1.810800
391.410500	1.624900
389.531567	1.723500
383.140000	1.960600
383.790133	1.900700
385.897033	1.712000
381.890900	1.957300
378.772200	2.115100
396.462900	1.079500
387.317883	1.475300
383.630183	1.672100
382.686400	1.657900
375.756867	2.058000
388.861367	1.293900
380.297300	1.796500
383.336667	1.434000
387.306933	1.214600
368.304150	2.306800
373.133117	2.006400
372.012850	2.002600
372.845200	1.872400
376.689617	1.577700
370.180833	1.969100
370.884017	1.934400
372.421917	1.827000
367.044900	2.089300
378.990750	1.291900
366.876533	1.996100
370.419800	1.755400
376.257550	1.399900
371.890917	1.659600
374.824067	1.461900
374.593000	1.310200
367.742550	1.723300
364.762017	1.886100
362.090117	2.071500
363.400317	1.849800
366.026917	1.653600
365.359700	1.666900
365.880967	1.602600
370.689550	1.302400
361.864533	1.813100
361.985417	1.671300
357.881933	1.875500
354.637733	2.007800
363.460683	1.479800
363.026333	1.502600
360.414500	1.637500
366.565767	1.121400
363.705667	1.272900
357.384567	1.630500
359.976900	1.472500
348.963850	2.112700
356.342850	1.546600
354.013100	1.681600
350.515333	1.847300
355.162550	1.555000
345.206150	2.113300
355.365383	1.490300
357.800717	1.190400
355.997183	1.278800
357.108767	1.185900
348.962600	1.677400
349.668417	1.492500
350.419883	1.394900
353.957033	1.114400
343.830550	1.723900
332.811683	2.385500
343.255383	1.753700
346.494500	1.461100
347.566217	1.348500
342.929167	1.588200
340.058750	1.741600
341.115467	1.694400
342.309983	1.618400
339.416467	1.799100
342.728450	1.473100
342.631117	1.454700
340.728600	1.534000
347.660867	1.110900
344.601117	1.294500
334.127017	1.895100
334.606217	1.816800
341.739683	1.380200
344.343417	1.204200
332.866617	1.886400
331.496883	1.876100
330.495883	1.903700
342.093533	1.166000
334.174467	1.629000
335.906367	1.478100
332.379333	1.694000
337.501467	1.260600
332.011167	1.519500
330.713800	1.575100
331.281483	1.547600
329.737983	1.606100
321.420117	2.055000
322.532933	1.908200
325.750000	1.649200
326.278167	1.597200
330.469917	1.305000
329.611167	1.347000
332.263617	1.114200
330.770517	1.163400
324.445867	1.505100
326.533100	1.341700
321.393567	1.628400
314.592233	2.019800
322.231733	1.454000
314.643300	1.880200
316.442850	1.714600
320.772000	1.431700
322.714883	1.295900
319.461667	1.471800
315.905517	1.578000
322.480233	1.137200
314.585550	1.596100
322.807000	1.085500
307.441483	1.928300
310.743950	1.688500
318.252967	1.142400
306.091717	1.854300
313.958600	1.362700
310.229783	1.586900
308.542517	1.606800
313.610100	1.220200
311.921167	1.315500
312.194467	1.262400
312.075983	1.268300
304.875383	1.700600
305.881400	1.629700
310.873267	1.251000
308.463733	1.359200
300.287767	1.804200
294.309300	2.173900
303.567450	1.592200
302.598483	1.659200
309.640617	1.049700
303.004683	1.474100
306.278683	1.263800
304.536817	1.327200
292.012567	1.988400
292.538833	1.915400
295.982450	1.681600
295.815500	1.699600
292.132083	1.908200
299.536067	1.466400
300.305067	1.285500
299.717383	1.276100
289.608783	1.834700
291.277083	1.713500
290.856867	1.743000
299.376983	1.202900
290.404567	1.712700
288.211933	1.787900
287.242433	1.847900
285.503733	1.934000
291.257167	1.589100
280.646450	2.073400
281.315483	2.001800
287.471067	1.569300
291.033200	1.331200
287.673267	1.528200
286.635217	1.567200
284.677733	1.539200
284.157283	1.550900
284.474367	1.463400
286.270317	1.368900
286.886950	1.331200
281.935517	1.595400
283.327417	1.415100
286.085067	1.252500
290.897350	0.935200
290.708183	0.922700
287.741983	0.951200
280.874983	1.313300
277.551383	1.466600
275.500133	1.531700
287.547150	0.712300
274.084183	1.575800
268.470550	1.849000
275.112450	1.363300
267.860967	1.748400
269.136017	1.622700
273.059483	1.357400
274.531233	1.261700
275.322150	1.193200
273.487083	1.137200
269.176117	1.386900
261.664550	1.821100
265.339117	1.613700
272.991150	1.036900
274.407000	0.930700
261.160250	1.645900
263.348233	1.509500
264.032417	1.466400
261.267600	1.614400
262.094883	1.461500
268.529250	1.023100
259.361550	1.495600
258.645333	1.530500
260.338483	1.419500
257.489733	1.586300
258.076950	1.432600
255.901717	1.552200
246.485267	2.086500
251.033800	1.836100
254.971233	1.530500
253.674050	1.504600
256.285117	1.333500
246.788400	1.855000
244.860617	1.965900
256.605567	1.260300
251.025033	1.593500
250.561650	1.552600
250.704383	1.522700
253.571217	1.354500
253.691300	1.342600
251.463400	1.417000
244.864600	1.783000
252.101217	1.336500
258.057817	0.958500
244.865500	1.689400
241.549867	1.885800
246.652950	1.529500
237.432900	2.024500
246.688033	1.411100
254.585667	0.898800
240.440017	1.729800
238.966133	1.806500
244.314800	1.438900
242.453067	1.481400
245.785833	1.244300
242.970317	1.357800
242.957450	1.330300
237.187417	1.639500
236.595683	1.654400
235.122650	1.623700
240.222967	1.319700
240.176200	1.270600
239.463067	1.294500
236.003233	1.485500
241.412000	1.159600
235.142167	1.376700
241.423433	0.992300
234.857583	1.349600
229.053067	1.687200
220.494400	2.123200
231.028467	1.471500
226.933500	1.627600
231.699300	1.352200
229.546017	1.425600
238.243050	0.939400
234.793850	1.086100
232.284833	1.123100
226.389133	1.449500
226.562600	1.383700
227.818817	1.291200
229.710717	1.181400
230.353017	1.127100
221.913533	1.471100
223.735917	1.361400
227.468833	1.141400
225.965500	1.231600
232.710117	0.684900
221.444517	1.325100
214.615500	1.659400
220.883433	1.307000
213.662333	1.736000
219.517150	1.366600
206.839417	1.984200
216.593983	1.399100
229.226817	0.623100
231.205967	0.492000
215.837467	1.323900
217.115950	1.161700
202.195300	2.031400
204.733533	1.842800
212.216400	1.385200
212.599633	1.364000
212.491033	1.326800
214.736217	1.050900
212.780817	1.144800
203.966700	1.591000
206.425233	1.455800
207.517200	1.383700
208.562883	1.333100
212.391250	1.026400
213.636833	0.925100
200.023933	1.713500
209.941233	1.130600
216.256550	0.723400
217.066617	0.636600
204.332733	1.253600
206.753417	1.110900
199.450033	1.517000
195.742033	1.763300
201.854567	1.302600
203.678317	1.139100
195.118850	1.614400
196.430233	1.531100
189.917183	1.957100
194.820267	1.662000
205.946783	0.905300
193.952867	1.536900
203.664583	0.911600
190.715200	1.663600
200.360433	1.072700
199.670317	1.089300
190.628817	1.579800
198.674000	0.997000
190.341817	1.488600
191.603867	1.395000
198.219917	0.943800
184.705800	1.631500
190.136933	1.289300
191.336917	1.185300
188.608117	1.319400
186.843133	1.405700
188.033550	1.331200
178.095150	1.825000
172.284517	2.136900
192.410400	0.866200
186.759317	1.196100
189.524767	1.020000
184.067050	1.319200
187.093900	0.997600
185.993700	1.060900
183.412000	1.200100
188.364433	0.860300
180.468817	1.233600
177.050317	1.392300
178.049050	1.304500
177.344850	1.310800
180.613617	1.094100
185.083717	0.840000
180.038733	1.056200
179.880817	0.981600
175.294633	1.223300
177.317400	1.051000
178.653983	0.982100
179.683900	0.917500
182.318967	0.735900
175.184517	1.004100
176.995050	0.892000
175.104383	0.947900
174.086600	0.998800
171.846167	1.035600
179.086217	0.588000
170.188567	1.070100
170.834233	1.039100
168.735633	1.116200
166.578117	1.236000
154.848900	1.808200
160.004917	1.467600
160.345717	1.433100
162.035850	1.337500
166.076617	1.087200
168.500983	0.923600
154.262050	1.698400
166.074650	1.006600
159.970583	1.347500
158.832217	1.421700
158.170250	1.413400
163.976183	1.029200
164.091033	0.991700
163.182217	0.966000
167.886050	0.644800
163.007250	0.931900
156.267483	1.316000
149.105300	1.638100
157.660700	1.105300
154.428267	1.233900
155.166700	1.175800
153.698350	1.234300
153.324900	1.234600
150.455317	1.283400
150.882867	1.220400
155.622533	0.923600
152.524133	1.112300
140.235250	1.723300
146.540000	1.318300
149.729383	1.044500
141.910733	1.523000
145.955000	1.291000
153.587233	0.803900
154.235650	0.632200
145.274167	1.141200
160.150067	0.177300
142.222900	1.252000
150.488133	0.728000
148.001867	0.880800
142.942267	1.142400
140.556900	1.177000
139.599783	1.250600
144.223317	0.958200
143.427817	0.973800
138.266383	1.170200
141.563817	0.960300
136.720117	1.180500
131.782283	1.470200
135.258367	1.233300
140.016367	0.946800
132.537133	1.289300
132.111650	1.302700
150.876300	0.117400
135.013233	1.034000
132.568283	1.177100
131.709883	1.229300
125.607367	1.452600
123.774200	1.543600
136.244250	0.760600
134.730517	0.867000
126.528150	1.240600
131.015583	0.946400
131.510150	0.876700
127.070817	1.094400
127.824267	1.038300
134.283267	0.642600
122.314983	1.290800
116.167233	1.576400
121.576217	1.242900
126.899900	0.889900
121.275200	1.224700
128.040150	0.809200
119.370717	1.334400
118.777967	1.245600
130.187300	0.547300
126.719433	0.749900
121.708767	1.050600
118.072117	1.175700
127.592100	0.593200
130.654533	0.333500
123.609850	0.748000
121.254500	0.844600
123.660833	0.681500
119.311267	0.788400
121.368717	0.619500
118.407950	0.770800
118.150033	0.793400
112.275483	0.976700
108.841567	1.202700
109.883533	1.075400
110.374450	1.059100
120.103350	0.429100
113.726433	0.813500
109.123167	1.043100
104.753683	1.318100
112.812333	0.803900
116.596233	0.462800
110.118933	0.808100
106.256750	1.051000
110.927083	0.749900
109.765750	0.705100
115.028067	0.369900
99.182683	1.252100
99.687833	1.210100
105.753917	0.849600
103.623367	0.986700
99.566617	1.118400
105.874933	0.673400
103.682367	0.756900
100.612833	0.943100
104.737867	0.672300
98.627533	1.016000
96.127383	1.034000
99.570567	0.798000
102.909667	0.572400
97.763567	0.893700
86.229850	1.522900
88.820750	1.300300
93.347150	0.995500
101.059033	0.525200
97.566100	0.722800
90.878150	1.108300
92.734350	0.977800
96.276883	0.731900
97.714967	0.626400
90.981567	1.004400
86.253483	1.267400
89.888850	0.934600
91.112017	0.829200
85.313483	1.120400
80.465500	1.411900
79.051300	1.524700
78.016483	1.556000
89.371083	0.760700
80.544217	1.264200
87.342717	0.806700
82.892933	1.059200
77.382017	1.384800
75.956650	1.476100
81.494950	1.008700
77.288200	1.252000
73.657183	1.449200
85.741883	0.721100
83.300900	0.754300
86.290933	0.524300
81.736633	0.751400
75.340917	1.072500
84.184033	0.518900
87.197950	0.334000
83.229200	0.529600
72.954383	1.110200
76.992250	0.863800
74.499050	0.997000
78.987000	0.713800
75.723250	0.764800
62.853417	1.510200
71.032850	0.983800
74.765167	0.765600
69.545917	0.994200
63.170167	1.383000
69.710783	0.977300
73.296917	0.751800
68.643717	0.878100
71.060883	0.758300
67.549433	0.926300
65.119717	1.057800
73.153800	0.522700
68.844217	0.747300
68.863633	0.708800
70.591883	0.578600
54.118200	1.485100
62.109050	1.022800
67.892300	0.611200
61.038383	0.904400
61.104217	0.869700
56.220700	1.138900
56.138717	1.128900
60.654950	0.857200
58.648350	0.918400
63.190200	0.561100
55.916067	0.964800
59.151333	0.766700
63.158600	0.518200
57.347383	0.802100
59.604567	0.645300
54.636867	0.856500
57.385633	0.700400
54.058317	0.898800
47.574500	1.269100
49.476000	1.023100
51.390583	0.900500
58.329033	0.434300
56.442167	0.520200
46.304450	1.093000
45.818317	1.131300
53.438383	0.607400
53.779650	0.590800
53.571350	0.581200
41.408733	1.302800
48.803750	0.767800
47.513100	0.786400
52.160900	0.450100
50.231033	0.532100
49.376750	0.563800
47.831200	0.638200
46.331267	0.630600
41.948800	0.820000
42.569417	0.779400
40.214333	0.854300
44.265250	0.618700
48.526917	0.350100
44.630733	0.575900
33.411950	1.107400
36.346117	0.920100
45.424800	0.404200
41.623450	0.609700
35.935383	0.841700
38.500483	0.632900
32.969633	0.892400
32.908850	0.923500
34.449817	0.818700
34.593300	0.810700
30.336467	0.963000
19.656450	1.570300
27.594083	1.053200
29.116767	0.948300
24.775500	1.198300
26.986617	1.054200
