#Y dist(nm)	Y force(pN)
0.000000	-0.550700
-8.717017	-0.016000
-8.781500	-0.008900
-7.626800	-0.074600
-7.036117	-0.128800
-7.411533	-0.106800
-9.002717	-0.021100
-9.184150	-0.003500
-11.713233	0.137100
-4.380450	-0.306200
-7.064867	-0.123700
-8.675067	-0.055600
-15.449050	0.368500
-5.533750	-0.230000
-11.919817	0.147200
-3.924983	-0.324900
-8.173533	-0.095400
-5.988633	-0.220500
-12.863867	0.191600
-17.222800	0.447400
-8.699667	-0.061000
-11.452833	0.102000
-7.851683	-0.125400
-11.755700	0.115300
-12.245667	0.148400
-15.267933	0.300300
-9.448617	-0.064000
-11.333433	0.064800
-12.950367	0.172700
-10.016617	-0.011500
-10.197000	0.016300
-8.254467	-0.112900
-3.556400	-0.407600
-13.480483	0.198300
-11.602033	0.084300
-11.177333	0.042000
-8.726617	-0.090400
-13.005217	0.162800
-11.144700	0.026500
-11.935983	0.070200
-9.911933	-0.049500
-6.349667	-0.262900
-10.620617	-0.003700
-8.200683	-0.156300
-6.954450	-0.232400
-10.240183	-0.042000
-8.422433	-0.153600
-10.915950	0.017500
-16.113167	0.313400
-12.274217	0.075500
-13.196867	0.135800
-19.475033	0.513000
-11.681283	0.039600
-7.766250	-0.209300
-11.818383	0.036000
-12.268133	0.057300
-2.979450	-0.498800
-12.817617	0.086600
-11.272433	-0.025500
-8.570667	-0.160900
-14.048167	0.147500
-10.789767	-0.040900
-8.745550	-0.171200
-9.586300	-0.118700
-9.939633	-0.101100
-4.849400	-0.408200
-7.242183	-0.281100
-14.115700	0.134800
-17.665617	0.357500
-5.403867	-0.390100
-10.222517	-0.094900
-8.962283	-0.179100
-2.043950	-0.557000
-7.572733	-0.268500
-14.090783	0.111000
-16.724350	0.277300
-17.638767	0.327200
-11.046483	-0.057300
-12.500967	0.026900
-6.445117	-0.343600
-7.280400	-0.295100
-16.948600	0.287200
-13.611483	0.065400
-11.790667	-0.032800
-14.429967	0.119600
-13.037850	0.044500
-11.396200	-0.066200
-5.913133	-0.399600
-13.333150	0.043000
-7.665367	-0.295600
-10.598983	-0.122400
-10.377450	-0.151400
-13.547117	0.040100
-14.161500	0.096700
-2.220317	-0.615700
-13.890317	0.069800
-17.586300	0.284800
-10.865300	-0.117800
-14.778950	0.117700
-9.635750	-0.196100
-12.384650	-0.047000
-8.287450	-0.291500
-8.295450	-0.304700
-12.084550	-0.072500
-10.739250	-0.157100
-13.833233	0.032700
-11.499600	-0.088400
-14.830500	0.091300
-18.313483	0.288600
-11.598567	-0.110800
-12.533450	-0.052700
-11.562733	-0.117000
-14.391850	0.067000
-10.360100	-0.195200
-14.664733	0.071700
-16.316983	0.169200
-12.177067	-0.091300
-13.314317	-0.025000
-5.967467	-0.451600
-2.616367	-0.649300
-12.669550	-0.068900
-9.012550	-0.289100
-12.958950	-0.071900
-12.219033	-0.097800
-10.015550	-0.237500
-10.632433	-0.205800
-13.747017	-0.017500
-12.881650	-0.070700
-12.987567	-0.058000
-13.075967	-0.059800
-10.343500	-0.224900
-11.390583	-0.167700
-10.353867	-0.228700
-9.434533	-0.283200
-9.425617	-0.254800
-12.153100	-0.122600
-9.445567	-0.251500
-11.129900	-0.197300
-6.906250	-0.443900
-11.664517	-0.164800
-23.517050	0.556300
-16.202450	0.116200
-12.924100	-0.092600
-15.480150	0.057100
-12.775367	-0.105700
-12.670733	-0.109500
-16.590600	0.116200
-12.337300	-0.142700
-13.318867	-0.103000
-13.759000	-0.066800
-14.870317	-0.001000
-18.303567	0.210500
-15.185150	0.021700
-17.858233	0.171900
-15.184983	0.019500
-14.142783	-0.054300
-19.343500	0.267700
-15.263717	0.023300
-13.510183	-0.092700
-17.526033	0.147900
-9.328567	-0.345400
-16.310917	0.071600
-12.929017	-0.142300
-23.675200	0.508300
-18.831483	0.230400
-18.411883	0.187200
-15.124167	-0.005200
-20.643167	0.320000
-10.328767	-0.291400
-13.742483	-0.097800
-18.695133	0.205200
-15.427283	0.006300
-17.783567	0.147200
-12.460383	-0.173700
-18.683483	0.194100
-12.398417	-0.203800
-21.738000	0.367000
-12.335383	-0.188400
-18.972383	0.198300
-13.584933	-0.125400
-13.322800	-0.155000
-12.594833	-0.199200
-14.121400	-0.104000
-12.657833	-0.193500
-14.063933	-0.101100
-20.704783	0.302700
-17.722300	0.117100
-12.238017	-0.183100
-16.880267	0.077600
-15.644183	0.006000
-17.875633	0.122100
-13.440783	-0.139200
-13.300950	-0.160400
-22.544700	0.380800
-12.871883	-0.195300
-12.201617	-0.234400
-13.543800	-0.164000
-17.939250	0.094000
-9.930283	-0.389100
-11.207717	-0.307900
-17.909500	0.085300
-15.519217	-0.046600
-17.573483	0.075600
-11.784817	-0.274900
-18.947133	0.151800
-18.147100	0.112600
-16.938100	0.036700
-17.409183	0.068700
-19.877467	0.190400
-16.516983	-0.001800
-19.164500	0.152500
-17.854500	0.072700
-16.056033	-0.021600
-22.762417	0.374900
-18.968200	0.139600
-18.322350	0.097000
-12.213367	-0.266500
-17.993000	0.061000
-16.067500	-0.022400
-17.656883	0.053700
-16.213700	-0.036800
-14.395467	-0.150700
-14.205917	-0.167800
-13.965350	-0.183200
-15.391750	-0.099200
-12.834950	-0.264200
-15.230933	-0.111600
-16.417200	-0.034100
-16.768717	-0.019000
-14.589950	-0.147500
-18.423433	0.070500
-16.865817	-0.023800
-17.943267	0.032300
-19.438300	0.130600
-18.940233	0.156300
-20.200850	0.184300
-22.628350	0.331600
-21.253083	0.240300
-28.711100	0.680800
-22.486017	0.308300
-21.328617	0.237500
-23.313700	0.366400
-17.024150	-0.017300
-20.042833	0.166800
-20.051433	0.166800
-19.352250	0.101800
-18.641200	0.061900
-14.367150	-0.179300
-12.830500	-0.273800
-11.677000	-0.352400
-17.747383	0.027300
-12.895033	-0.231000
-20.737567	0.220400
-17.673650	0.002500
-21.739883	0.279600
-22.844067	0.315800
-16.667833	-0.040200
-19.987517	0.149600
-20.958050	0.213700
-28.576600	0.700600
-18.711383	0.100800
-27.146500	0.576700
-26.988250	0.580000
-21.459467	0.252500
-24.874000	0.422500
-17.748150	0.013000
-27.943933	0.633300
-17.485800	0.031000
-16.708617	-0.011500
-16.481500	-0.028100
-25.273000	0.484300
-24.806183	0.441900
-20.250233	0.166800
-20.610400	0.185200
-23.124733	0.349200
-23.302200	0.346900
-14.904683	-0.150000
-27.307183	0.588000
-24.240833	0.423000
-24.144283	0.419100
-18.060783	0.056700
-17.481067	0.011600
-26.367217	0.542000
-16.113233	-0.072900
-19.174067	0.100700
-22.704867	0.318500
-18.235150	0.065200
-16.952767	-0.010900
-18.288367	0.061100
-16.561067	0.009500
-16.467783	0.029400
-10.636767	-0.346000
-13.878883	-0.147900
-16.929783	0.031200
-18.146100	0.105700
-13.886417	-0.064600
-15.899117	0.073100
-15.249800	0.038800
-17.981933	0.191700
-20.115150	0.296200
-19.465367	0.293900
-23.343317	0.517400
-18.083250	0.201400
-21.000300	0.429100
-9.146033	-0.225000
-15.474183	0.149100
-18.428633	0.329400
-15.153367	0.176600
-6.408383	-0.332100
-9.323900	-0.175100
-20.045383	0.467100
-8.579583	-0.209100
-13.869383	0.121800
-11.777200	-0.005000
-14.396833	0.218700
-12.716617	0.133100
-11.295767	0.028100
-14.449050	0.203500
-9.572217	-0.053500
-11.898650	0.093400
-13.430850	0.168400
-10.282800	-0.033500
-6.849567	-0.120700
-13.731967	0.339500
-14.075917	0.363200
-14.222550	0.357100
-13.602233	0.321600
-7.921817	-0.012700
-6.392017	-0.112000
-2.535567	-0.343900
-12.990500	0.365500
-4.953333	-0.078600
-14.205833	0.494100
-12.874300	0.419800
-17.082350	0.691300
-13.949667	0.487700
-17.109500	0.667600
-10.127033	0.260100
-10.609767	0.294800
-5.522967	-0.010900
-9.324067	0.265700
-8.590350	0.289600
-8.411550	0.304900
-4.728117	0.097100
0.694883	-0.224500
-2.652600	-0.039500
-6.093967	0.154700
-14.861383	0.686100
-12.061217	0.547700
-12.426267	0.672200
-7.230550	0.377500
-6.764133	0.361200
-2.923967	0.124100
-7.174267	0.375500
-3.720733	0.149100
1.526367	-0.150000
-2.214850	0.060400
-8.404383	0.557100
0.682683	0.008300
-6.247050	0.436900
4.122933	-0.160600
4.353133	-0.139000
-4.997483	0.442200
-9.896800	0.722800
2.814033	-0.020800
-0.491933	0.166200
-3.888650	0.398800
-9.352050	0.764800
5.034600	-0.041900
-1.324117	0.318500
-1.746983	0.359100
-4.624100	0.511000
-4.243133	0.500400
0.908217	0.197400
-3.403067	0.470000
-4.962300	0.584800
-1.427817	0.455300
6.041533	0.018200
1.767367	0.264900
10.204050	-0.243200
13.216467	-0.410100
8.376200	-0.130100
-1.458650	0.468100
6.595033	-0.022900
8.342817	0.013200
14.920117	-0.378000
5.090633	0.218600
4.205483	0.277400
11.130250	-0.150500
4.364350	0.265900
3.893183	0.281000
0.097583	0.522800
8.466767	0.128100
9.722633	0.077000
14.794033	-0.205600
9.941433	0.079700
9.906450	0.109600
7.483767	0.221400
6.242567	0.327300
13.650483	-0.050500
4.649617	0.471000
7.223233	0.325400
9.003300	0.224500
4.917933	0.467000
6.583567	0.350400
5.081917	0.450600
6.189617	0.369300
7.542883	0.291500
3.500183	0.541700
2.136350	0.612400
3.803083	0.505100
3.835367	0.665100
16.519983	-0.081400
8.500283	0.406100
11.034050	0.247300
21.380467	-0.277200
8.915750	0.463600
14.031867	0.166800
13.609000	0.171700
17.158400	0.004600
19.355217	-0.096600
15.990700	0.132400
24.260150	-0.372800
15.555417	0.136200
16.134167	0.128100
23.976067	-0.343200
15.507733	0.164900
11.634250	0.417700
11.200367	0.432600
12.654683	0.365300
13.450383	0.413300
24.443750	-0.203300
27.476250	-0.408500
34.682317	-0.828000
23.321183	-0.092800
16.329117	0.339600
21.668883	0.013700
18.382700	0.208000
10.425333	0.687800
24.839517	-0.147900
19.039883	0.264200
19.839517	0.236100
32.723033	-0.528400
22.723800	0.061900
25.124283	-0.057700
19.116267	0.295200
33.016067	-0.542400
14.986550	0.517900
22.281117	0.209700
17.288950	0.560200
18.530317	0.459900
24.579233	0.094100
23.443550	0.189400
22.850717	0.205500
15.470317	0.643800
24.693833	0.116000
25.818250	0.082000
19.992583	0.528200
20.333550	0.506500
25.650100	0.184300
32.793700	-0.240500
20.724783	0.479900
18.806917	0.633600
21.381617	0.559500
23.806717	0.404100
23.428767	0.416700
26.373267	0.263700
32.056150	-0.090500
33.913067	-0.194400
33.399233	-0.050800
24.582167	0.465000
33.410900	-0.058400
26.709883	0.337700
29.703950	0.222400
30.699883	0.164000
29.447350	0.251500
33.272150	0.040900
36.796933	-0.195100
33.802183	-0.014800
27.432733	0.381200
26.110900	0.447700
35.847900	-0.128600
24.167450	0.558700
39.810450	-0.263300
29.665500	0.342100
29.101433	0.386300
21.448783	0.833900
23.695200	0.736300
32.690200	0.294100
30.288733	0.440900
28.900867	0.495300
35.087650	0.135400
38.595967	0.026100
42.665350	-0.221300
39.196583	-0.001000
29.153467	0.580800
41.658900	-0.150500
30.939600	0.487600
44.859233	-0.238300
39.820650	0.051400
33.221350	0.457900
36.554067	0.248100
37.123900	0.327700
34.494333	0.458600
36.508383	0.324800
36.516367	0.337800
39.069233	0.243500
36.695267	0.403500
36.206583	0.432800
42.498050	0.065200
38.181300	0.337300
35.386633	0.486500
40.794717	0.163800
43.715200	-0.030200
34.267483	0.605900
45.911133	0.013700
36.107183	0.584000
44.599433	0.073700
43.237417	0.151500
56.157550	-0.632000
41.441900	0.262000
47.523083	-0.100000
43.543817	0.157800
40.762367	0.466800
46.590867	0.109500
49.907017	-0.094800
34.448750	0.846400
41.006600	0.517600
45.705850	0.227500
42.102833	0.457100
50.201483	-0.022000
44.738083	0.321800
44.733683	0.324200
47.856317	0.173100
44.916583	0.360200
44.182000	0.412300
43.869600	0.431200
47.965433	0.191600
40.849500	0.630400
40.132067	0.684300
46.693183	0.265400
46.513850	0.295300
44.108067	0.441000
43.266900	0.511600
45.899517	0.361500
50.830233	0.058100
51.965133	0.014300
45.924067	0.375900
45.510717	0.381000
48.611967	0.229800
61.241167	-0.271800
59.002117	-0.146100
56.333483	0.026000
52.443417	0.273600
48.593667	0.544500
59.092350	-0.080900
53.965600	0.231100
58.655533	-0.047200
58.371867	-0.040200
63.074283	-0.306400
59.374383	-0.023800
53.195617	0.396300
53.810933	0.342500
59.826333	-0.032500
61.375267	-0.126900
50.178350	0.577000
55.780883	0.243800
52.216333	0.465200
59.564500	0.129400
58.257833	0.231500
61.399967	0.080700
55.347083	0.433700
62.001600	-0.002900
57.881267	0.288300
61.769350	0.116500
51.557633	0.770300
58.176717	0.383100
54.048867	0.633300
58.020450	0.392800
55.722850	0.520900
56.833550	0.450100
57.711100	0.496600
57.879000	0.492700
54.486833	0.700700
53.725433	0.757100
51.046133	0.920600
49.442883	1.019300
56.494433	0.598100
63.565583	0.191300
71.798000	-0.171800
66.050717	0.177300
61.328283	0.464300
67.843817	0.101400
61.600583	0.536600
63.850317	0.400200
57.632483	0.779300
68.658033	0.098300
68.892367	0.129600
64.098417	0.460500
62.003383	0.610700
66.293400	0.332800
62.748100	0.578200
71.714700	0.078700
70.201183	0.179300
65.267833	0.445700
78.546200	-0.349400
71.653667	0.075000
71.132733	0.110300
73.517900	0.064300
76.004267	-0.087900
68.862667	0.361200
70.030783	0.290300
66.927767	0.558900
76.663283	-0.028300
75.190233	0.038600
63.738700	0.721300
69.431450	0.454300
71.579600	0.344500
72.639183	0.296900
77.381467	0.025500
76.768283	0.107600
76.334783	0.179300
78.839200	0.033700
80.990850	-0.090200
79.128617	0.006000
73.476783	0.340700
73.826167	0.344400
73.047150	0.481000
87.836167	-0.411600
77.802683	0.176000
73.443350	0.446800
74.962833	0.345200
72.598500	0.478000
76.285800	0.268600
76.780200	0.265300
79.876283	0.152600
75.089017	0.445500
83.312500	-0.038000
74.841317	0.475500
75.725700	0.469300
78.610167	0.262500
67.827183	0.896900
73.455017	0.582900
80.519967	0.268200
74.027750	0.722800
86.016833	0.009500
78.444883	0.496400
74.511683	0.708800
75.571017	0.661200
83.552150	0.202300
77.687567	0.576600
84.583933	0.173300
82.060833	0.356900
81.225250	0.399100
76.081017	0.719700
80.168550	0.490300
76.400667	0.768300
88.154867	0.091800
88.703983	0.064400
83.329083	0.431900
89.323050	0.144700
89.370350	0.154600
86.095750	0.356200
90.404017	0.088200
85.998767	0.329400
85.668833	0.371900
83.062967	0.555000
85.916083	0.340700
90.686683	0.041600
85.830683	0.341000
100.544983	-0.368200
90.078117	0.307500
95.553850	-0.046700
93.429717	0.078600
85.486183	0.557600
88.467950	0.386500
92.722367	0.123900
85.002233	0.575300
91.147867	0.303900
93.274833	0.245900
91.429167	0.336900
90.792467	0.383400
101.110900	-0.230000
89.787250	0.458200
94.603467	0.168900
91.880383	0.343100
90.943250	0.377500
87.054150	0.626800
91.580683	0.395000
89.899700	0.646300
95.032233	0.339200
96.842017	0.232200
92.506533	0.494600
88.196433	0.771800
93.432300	0.459100
84.980117	0.946800
88.040900	0.772000
104.938883	-0.081400
100.369317	0.231000
103.291367	0.046500
99.985900	0.228400
101.602250	0.124900
101.849467	0.127200
99.618017	0.268500
102.068733	0.102800
100.228017	0.316500
103.108383	0.230300
110.102567	-0.147900
101.891350	0.298600
99.157733	0.462200
103.216317	0.234000
104.465083	0.212000
99.996083	0.522200
100.479867	0.502500
100.872683	0.489500
105.682533	0.210500
98.923283	0.689600
95.386500	0.915400
99.691833	0.632300
97.993283	0.784100
96.210950	0.945100
103.922633	0.487100
104.689400	0.452200
104.840400	0.447400
105.123500	0.400900
104.091617	0.471000
111.068767	0.155100
111.957967	0.118500
106.417200	0.429100
103.903783	0.563300
100.879733	0.730700
97.086300	0.971200
111.063383	0.140600
107.658517	0.374400
109.455350	0.381400
101.853233	0.901700
112.337283	0.296000
104.747833	0.719300
105.695533	0.638900
118.823450	-0.108800
108.878333	0.476600
110.806317	0.349200
111.856300	0.359500
113.129500	0.385900
118.115150	0.112900
118.302267	0.107400
120.042167	0.019200
107.642950	0.757900
117.863567	0.138900
106.353083	0.938300
113.948217	0.515400
118.510017	0.243300
117.893400	0.244000
120.312867	0.191100
115.672767	0.493500
123.811483	0.009500
126.920383	-0.190600
118.618850	0.289900
119.490833	0.250700
116.152000	0.540700
113.695367	0.709200
116.196583	0.568700
119.254717	0.394500
128.684783	-0.177700
110.106433	0.928400
123.484650	0.135400
119.052067	0.408600
123.417217	0.141000
117.539183	0.486200
120.102600	0.370300
120.573583	0.535100
116.686967	0.778500
124.893750	0.287500
114.463117	0.923100
115.524633	0.844400
112.070933	1.046600
125.535400	0.431200
130.278467	0.125700
124.970217	0.460500
122.924083	0.589100
130.242500	0.206200
122.263300	0.704200
132.795450	0.082900
130.850650	0.212500
123.097200	0.659200
116.937850	1.026400
124.013717	0.708300
127.597550	0.497800
134.033783	0.108500
127.002117	0.552600
126.519250	0.567400
128.281650	0.473200
131.796517	0.258000
126.775683	0.560900
132.232833	0.300800
127.579317	0.600000
129.489350	0.506500
123.320350	0.885400
134.073367	0.273300
134.177700	0.310600
135.203783	0.262700
123.200617	0.978900
135.003783	0.309200
130.500083	0.562700
131.732950	0.489400
138.501333	0.161300
128.181333	0.802700
130.026300	0.701800
143.542683	-0.098200
132.824183	0.548900
136.108267	0.352200
144.561817	-0.152400
140.825550	0.090100
128.953900	0.808900
137.776067	0.291300
139.711700	0.195700
136.344100	0.400900
132.015067	0.838200
134.930950	0.670300
135.506517	0.664800
142.827700	0.206200
139.945283	0.527000
140.051083	0.494600
143.578750	0.293500
132.098017	0.969300
141.348450	0.496900
145.903450	0.267100
137.095583	0.783500
138.948617	0.669600
141.543050	0.499900
134.452450	0.931900
145.057133	0.342200
143.872817	0.495300
145.702717	0.395400
146.370500	0.351700
136.717717	0.941700
136.025933	0.974600
140.614117	0.705000
144.265117	0.511800
150.616133	0.127100
141.148000	0.685600
143.277667	0.534000
149.940217	0.364800
152.283767	0.238800
142.230650	0.843400
144.036083	0.750200
141.877800	0.888700
136.527583	1.219100
140.669967	1.121400
148.450917	0.646200
154.050567	0.324900
151.932083	0.455900
146.842517	0.750300
148.458200	0.656200
154.083067	0.380100
152.495933	0.489200
153.069367	0.475500
152.954833	0.467300
149.022417	0.749700
154.184900	0.543100
153.123850	0.594700
151.949200	0.673600
149.486367	0.828600
156.338333	0.421400
153.347117	0.580800
155.476817	0.462300
156.145683	0.436400
156.412583	0.497300
156.447900	0.510700
155.680800	0.606700
157.279500	0.507100
160.798283	0.316700
152.674800	0.801100
158.335633	0.458300
150.481767	0.937800
142.520100	1.504300
144.110700	1.391800
160.021367	0.482100
158.931567	0.546300
155.663150	0.829300
159.512600	0.615100
156.103217	0.838200
154.292850	0.938200
159.626800	0.612700
157.361850	0.743800
157.420400	0.837400
158.041883	0.857900
166.830433	0.336200
169.508533	0.162200
150.259150	1.340200
162.877333	0.605000
160.152283	0.749000
156.783167	0.979800
157.623983	0.960800
162.854233	0.834500
166.694533	0.630500
171.397017	0.341700
165.941300	0.660700
164.436783	0.770000
165.760767	0.686400
164.728483	0.743300
168.374317	0.521100
173.843233	0.317900
164.244217	0.877800
168.028700	0.673000
170.229567	0.552300
165.150333	0.982400
165.471433	0.955400
166.492333	0.911600
173.536283	0.487400
171.025550	0.722800
175.881700	0.457600
168.941600	0.894400
161.674567	1.327500
181.837267	0.171000
183.384050	0.135400
177.653833	0.471800
174.804433	0.626900
175.563333	0.597800
174.400900	0.691900
173.730333	0.743000
176.592150	0.689500
170.511783	1.060100
171.142917	1.041600
181.987467	0.381000
172.123767	0.983100
174.297717	0.839100
183.970500	0.271000
185.712767	0.135900
172.239117	1.167900
179.843250	0.704800
189.020883	0.149300
176.068917	0.935400
187.329817	0.344400
182.218617	0.661800
177.558917	0.951000
182.974283	0.628400
183.595250	0.570700
196.348617	-0.156300
189.615200	0.289900
190.956700	0.264700
180.338183	0.922100
181.750283	0.840200
176.698200	1.149700
177.476800	1.081000
179.748867	0.966900
184.274517	0.729600
180.954833	0.949100
183.985200	0.798100
182.646133	0.880100
184.856600	0.764800
178.629017	1.140300
181.899267	0.931500
182.477367	0.913200
186.570267	0.666900
182.412683	0.946100
184.787367	1.112700
191.518100	0.729100
190.239667	0.806100
189.922033	0.823100
189.330733	0.936500
194.648683	0.631700
185.547817	1.161300
196.139050	0.553600
192.805650	0.761500
199.696933	0.337400
196.734600	0.591700
194.445800	0.781000
200.975817	0.384300
194.036800	0.799300
198.281833	0.548000
200.117017	0.420300
194.151567	0.785700
196.692517	0.626700
206.117083	0.131000
200.025917	0.625800
196.836650	0.838900
197.468267	0.788400
200.109850	0.605800
197.193017	0.791400
196.378200	0.855100
192.300883	1.119800
198.605667	0.705300
202.264050	0.713200
196.668000	1.072000
200.118517	0.891900
207.541150	0.450100
207.101333	0.558200
200.481033	0.947300
201.879683	0.883100
200.119517	0.994200
197.038333	1.190000
210.005550	0.407500
206.491017	0.673800
200.298400	1.038100
209.404950	0.520000
212.700983	0.328400
208.744583	0.607400
202.185633	0.970100
207.797133	0.650000
207.065633	0.684500
206.108000	0.871900
203.765583	1.081400
205.311117	1.011600
219.187883	0.179900
216.126267	0.372600
206.253317	0.954300
208.416517	0.834000
207.194650	0.896200
213.058633	0.575900
208.556117	0.988500
205.189083	1.224800
209.574533	0.982400
214.652150	0.698800
216.839733	0.649400
208.628850	1.150900
205.277983	1.379300
210.269850	1.076800
225.928217	0.233700
214.968800	0.895000
217.114817	0.785100
207.616917	1.366200
216.119317	0.857100
218.293267	0.717600
221.927183	0.486800
219.665300	0.607900
222.394150	0.467800
217.167667	0.765300
227.065250	0.408100
223.741567	0.625500
222.985200	0.687100
223.044667	0.675300
226.836650	0.477700
219.164950	0.977800
217.965283	1.088600
222.221333	0.846200
225.165367	0.697800
223.188950	0.883900
226.530083	0.704600
223.902100	0.852400
230.573517	0.460500
222.876900	0.926200
227.714350	0.634300
225.442433	0.736100
222.787800	0.920200
222.647983	0.922100
218.420000	1.175200
230.670450	0.648700
229.756500	0.764800
223.125800	1.165300
227.402700	0.913600
230.740300	0.722800
227.646233	0.908900
229.042583	0.842000
226.562033	0.982400
227.439667	1.049700
230.579517	0.942600
240.585550	0.355600
230.802583	0.962000
226.429467	1.223700
226.859067	1.191600
233.742733	0.794600
231.668800	0.889000
229.727450	1.043200
229.425967	1.191600
239.112483	0.622100
240.124767	0.589500
238.776883	0.675200
247.246050	0.205900
239.197317	0.657000
244.392450	0.365200
234.954883	0.931700
236.956283	0.820700
231.720167	1.136400
237.503250	0.972100
239.347600	0.851500
241.260933	0.780500
238.652450	0.897400
236.079600	1.066300
237.474467	0.983100
233.188700	1.250800
234.076900	1.213600
246.278633	0.555800
249.248317	0.372900
247.091733	0.509000
250.056367	0.337500
241.230450	0.845800
230.897017	1.467000
233.203600	1.339600
245.568017	0.610200
242.606050	0.956800
248.745050	0.736600
244.533517	0.987300
247.185100	0.850600
254.460833	0.410300
253.200933	0.469400
254.383133	0.389000
244.072167	1.014900
246.365117	0.878700
250.712583	0.609500
245.914250	0.910600
243.470967	1.060800
240.923900	1.202500
242.599617	1.081800
245.057017	0.969000
244.476000	1.001800
248.572983	0.746600
244.141133	1.015400
248.853550	0.758200
251.531833	0.609500
254.239200	0.429700
239.178500	1.320700
247.260383	0.844700
239.101800	1.354300
245.933133	0.944300
240.004783	1.275500
246.530067	0.888300
250.275083	0.659900
246.066200	0.904300
240.803417	1.173900
247.802900	0.802600
251.421433	0.801800
247.306167	1.263000
245.713567	1.399800
258.076233	0.705500
248.889333	1.281800
254.639717	0.958200
254.460567	1.020600
251.496717	1.255200
262.200817	0.692100
260.269483	0.847100
253.859633	1.259300
252.490217	1.372200
259.687100	0.962500
257.942250	1.192900
270.175517	0.480000
275.891617	0.174300
268.516650	0.623500
264.850750	0.850000
268.673167	0.612300
269.851650	0.671800
271.072800	0.608800
272.312167	0.521400
268.342733	0.782000
272.270483	0.594800
271.105117	0.730200
265.768617	1.072500
270.351933	0.829400
275.554083	0.515000
263.732433	1.227500
266.412750	1.148500
264.583267	1.320000
271.181883	0.971600
268.895717	1.148400
272.419917	0.937800
276.892883	0.658400
274.829117	0.790500
271.935283	1.097600
279.395117	0.668100
273.669133	1.042700
274.315233	1.006700
275.920383	0.922100
279.383050	0.710200
271.126717	1.335900
274.791750	1.123000
275.769150	1.069000
281.919083	0.678200
282.281633	0.749600
275.505867	1.177800
269.035467	1.580400
269.989583	1.554800
278.433750	1.058500
274.685850	1.299700
278.311033	1.135100
273.312317	1.455300
284.732033	0.781400
284.720417	0.807300
282.466350	0.961300
277.653167	1.238100
276.868500	1.338700
279.067783	1.279400
284.829167	0.957300
279.916017	1.245300
282.910367	1.131900
287.000950	0.949600
289.287450	0.839800
294.764317	0.542700
284.089450	1.175200
287.232767	0.989400
286.522483	1.054100
285.192033	1.177400
284.488617	1.222500
271.068017	2.074500
279.523667	1.575000
277.690683	1.691600
282.839300	1.405900
288.584117	1.136400
285.430300	1.327900
287.069983	1.228100
289.359683	1.073600
301.253950	0.459700
295.136017	0.859800
289.226150	1.241200
292.074783	1.081100
297.857117	0.747300
287.743200	1.352200
293.097917	1.089900
299.576217	0.782700
296.694983	0.959600
307.117167	0.381900
304.394750	0.557800
296.010000	1.027000
289.744883	1.429100
301.630450	0.853000
303.540583	0.741200
307.867950	0.472000
300.970700	0.889900
299.023383	1.034600
296.738267	1.162500
299.668417	1.050300
305.085100	0.727300
299.965450	1.033600
305.173283	0.735500
306.703067	0.724500
296.614783	1.357400
306.000317	0.838200
301.780083	1.063700
311.322133	0.565400
310.678033	0.639500
312.655217	0.561300
309.913350	0.727000
321.139300	0.103900
311.525317	0.632100
308.778850	0.850600
310.816100	0.806200
313.438233	0.655100
308.032017	1.002000
303.329983	1.311500
310.221683	0.919100
315.398567	0.604500
304.665183	1.371500
311.475183	0.976700
309.934217	1.121400
311.688683	1.015100
306.472367	1.346100
315.154467	0.837300
319.490717	0.696600
310.525767	1.202100
311.191667	1.157100
312.191383	1.135400
305.908817	1.629000
311.039033	1.329800
323.572800	0.619600
314.711800	1.170400
326.495417	0.483600
321.280967	0.749400
314.008233	1.254800
318.306267	1.064400
324.769350	0.701800
325.445217	0.665100
322.861783	0.841400
323.937783	0.779600
318.103917	1.108800
314.388633	1.388000
318.010067	1.192200
316.678600	1.261000
315.363200	1.374100
327.702600	0.732100
314.148083	1.573400
326.738417	0.887100
330.212367	0.668700
320.448933	1.217900
322.788483	1.094000
324.125700	1.099000
323.977467	1.152900
321.025683	1.388900
324.428983	1.175600
328.991683	0.911600
327.273450	0.998200
324.171233	1.247300
324.354483	1.292300
330.159100	0.975400
334.959633	0.704600
336.393783	0.608900
326.104117	1.217100
334.187150	0.764800
323.584950	1.512700
320.662100	1.680400
326.224800	1.390900
330.553050	1.175500
341.149400	0.642400
336.331600	0.923500
335.195883	0.992000
329.482867	1.349400
326.807833	1.652900
335.750967	1.117500
336.597750	1.097800
333.478583	1.312400
340.350783	0.974600
341.585333	0.874100
336.062833	1.202900
334.888817	1.263000
334.920617	1.313700
336.711933	1.205300
346.274583	0.643100
336.178450	1.244800
341.898467	0.954300
341.163350	1.080100
342.638217	0.992700
340.113617	1.123800
338.113917	1.233300
341.653450	1.159600
344.401967	1.005300
345.308600	0.973300
342.240467	1.170900
346.974133	0.912800
345.936117	0.990300
334.878050	1.655800
339.569467	1.406400
343.044433	1.293200
348.391183	0.977000
343.403883	1.268300
345.888717	1.143900
346.969333	1.119200
340.963567	1.491000
344.997467	1.284000
348.182667	1.128600
361.507317	0.308400
346.310617	1.208400
350.362150	1.084300
348.840067	1.214400
358.700400	0.701800
356.664150	0.797500
362.597267	0.450900
351.176383	1.127600
349.245550	1.270900
354.754750	1.033600
361.685300	0.623800
356.229467	0.943800
350.767633	1.298000
357.055417	1.021800
359.793400	0.880900
358.763750	0.980200
351.569600	1.381900
353.403317	1.304700
353.660300	1.320700
360.383783	1.052900
355.308150	1.324000
362.752950	0.906400
358.491067	1.191600
355.723550	1.409500
361.415833	1.112900
367.893567	0.768300
367.394233	0.794600
359.153833	1.280900
365.533417	0.891300
364.746867	0.956400
359.749750	1.271800
362.146567	1.184400
360.479517	1.285800
363.517717	1.142400
362.447267	1.195500
355.399950	1.674400
362.281767	1.347000
356.747567	1.719300
368.244050	1.060600
369.752800	0.986500
364.462183	1.279400
367.579650	1.128700
362.503117	1.548900
363.635850	1.481800
370.648083	1.070600
364.514033	1.480700
379.993633	0.649400
372.475783	1.098200
368.086667	1.366500
378.138800	0.770800
377.497550	0.823000
370.994033	1.221800
375.412867	1.023300
371.734950	1.286500
361.513083	1.908200
373.667933	1.223000
387.411767	0.401100
381.292017	0.767700
374.003233	1.282700
379.980017	0.972600
377.332300	1.148500
374.907650	1.330600
380.471117	1.009800
372.900733	1.456400
374.519617	1.371300
377.774567	1.295700
373.685467	1.563300
372.352117	1.664700
386.907000	0.802900
375.796783	1.496000
376.734017	1.464300
382.425600	1.174900
375.159600	1.607500
382.653383	1.194800
380.321000	1.339600
373.055883	1.824200
381.260650	1.372600
384.183867	1.203600
385.297067	1.122000
388.813033	1.041500
387.618883	1.126400
389.214117	1.106700
381.007467	1.585800
390.885000	0.995500
381.038367	1.623600
392.420033	0.986000
389.191150	1.237900
393.556700	1.006900
394.965883	0.953000
394.181317	0.994200
389.477683	1.243400
396.168800	0.883600
394.558867	1.091100
387.961000	1.482700
388.083767	1.486800
388.869700	1.444000
387.160617	1.566600
393.079633	1.233800
393.222833	1.276700
391.512900	1.400500
383.137033	1.908200
388.323417	1.609200
392.783833	1.452200
394.875050	1.368700
392.653033	1.562000
391.932633	1.608500
388.842867	1.831200
396.862033	1.349900
395.934917	1.455000
391.615567	1.761900
384.888383	2.138900
393.607800	1.670800
392.046367	1.786200
397.207450	1.473100
403.006417	1.175400
402.532133	1.296800
403.226233	1.251500
407.374667	1.006800
395.517367	1.712400
401.329717	1.435500
397.540750	1.680400
403.204450	1.393000
409.424533	1.024400
406.960183	1.165700
406.691117	1.176900
399.245967	1.718700
402.706350	1.553800
419.293967	0.625800
408.669217	1.255200
403.905733	1.533200
400.998883	1.727900
409.996467	1.313700
406.302483	1.562600
414.219517	1.089900
409.690500	1.352800
404.324417	1.716900
406.397300	1.645900
404.747217	1.803300
407.866533	1.615100
401.456500	2.016100
403.818567	1.888500
412.931283	1.406300
412.603000	1.497700
416.872850	1.260400
411.933217	1.559700
410.352000	1.666900
419.550933	1.222400
408.512267	1.908900
425.319967	0.939900
422.156983	1.114700
426.849567	0.847500
414.487117	1.588200
416.105333	1.606100
419.115917	1.453800
437.925517	0.381900
430.230183	0.841400
423.065517	1.252500
419.805733	1.448000
426.900950	1.119700
422.918967	1.390800
418.256783	1.703600
419.644400	1.587400
421.456650	1.504300
424.276083	1.334900
428.786033	1.257800
418.768067	1.868100
423.406733	1.593500
427.852150	1.369900
421.195517	1.805700
432.153817	1.237500
430.099300	1.383700
430.514400	1.370200
434.797333	1.111700
431.640967	1.314300
437.398850	1.006900
433.445950	1.318300
427.346300	1.730500
426.737767	1.828200
437.141083	1.201400
433.127733	1.424300
433.609983	1.412300
434.202817	1.422600
427.784367	1.828200
434.573917	1.455000
430.677117	1.689600
431.834350	1.633900
437.172083	1.314800
445.213033	0.852200
437.499783	1.340600
432.930717	1.618500
434.225517	1.548900
433.755100	1.632400
434.364917	1.683900
431.093267	1.920300
436.113350	1.654900
439.907767	1.439100
445.071200	1.126000
436.439817	1.666200
443.688117	1.350300
440.248717	1.566900
439.694183	1.615400
439.011767	1.675800
438.662150	1.749100
429.582917	2.312400
443.041483	1.608500
446.684083	1.405400
441.446250	1.692400
446.707050	1.427200
443.969450	1.705600
456.557833	0.962900
435.197800	2.296300
443.882300	1.781200
449.546883	1.458500
439.218600	2.089000
445.118933	1.743500
449.334300	1.546000
450.902283	1.463000
437.637783	2.258900
458.146033	1.078400
451.171717	1.598700
450.085400	1.677400
451.300100	1.658200
460.061883	1.151300
449.576917	1.771800
456.215033	1.389800
460.333083	1.232900
459.390233	1.300400
458.939533	1.379000
459.519983	1.380200
456.222733	1.591700
447.483083	2.121200
454.727533	1.736000
459.865600	1.432300
466.699433	1.074200
465.424317	1.132500
457.376300	1.624900
458.939017	1.534200
456.314433	1.758200
461.990483	1.520000
455.100300	1.939600
459.060217	1.712100
457.856100	1.787500
465.200883	1.388900
456.572100	1.940500
460.494650	1.727200
463.744100	1.534300
459.767183	1.808900
459.586333	1.840400
467.927417	1.489200
470.150900	1.372300
469.099717	1.471800
467.933550	1.555000
461.040750	1.977100
453.895350	2.419600
462.752467	1.990800
466.295917	1.845900
467.845817	1.765500
468.053617	1.781700
470.293850	1.644700
476.615733	1.265000
473.631567	1.590000
477.967033	1.330100
477.238900	1.364800
472.839300	1.637500
465.229800	2.185300
478.334300	1.450300
477.380033	1.551500
479.097950	1.426900
482.411000	1.243600
478.372083	1.475300
475.659117	1.662900
474.596067	1.764600
470.789783	1.991300
468.994833	2.140700
476.934900	1.678300
475.514283	1.779500
475.263283	1.802300
482.166233	1.511900
481.628933	1.535000
487.458083	1.187000
485.391050	1.316500
469.366750	2.355400
477.527033	1.928600
484.447450	1.546300
487.180283	1.451900
487.635033	1.399400
489.998600	1.270600
479.289350	1.936600
483.152767	1.750800
480.949833	1.909700
477.086433	2.180900
488.580517	1.499100
493.304583	1.219100
491.313183	1.381400
491.802850	1.429600
490.101150	1.553800
483.789950	1.950100
489.653267	1.610700
495.759450	1.299100
494.127283	1.388900
486.518967	2.012100
495.762183	1.466300
500.376100	1.197700
494.452417	1.569000
493.320733	1.749500
499.889717	1.392300
494.054467	1.765800
501.727350	1.307200
505.525050	1.059100
495.375700	1.656400
487.450133	2.282300
489.928950	2.127400
497.220933	1.714100
499.297517	1.587300
507.113817	1.214100
507.073917	1.260000
491.754183	2.201900
495.620683	1.998500
503.153800	1.552900
498.575933	1.814300
500.716033	1.733900
500.040617	1.860300
504.832333	1.583900
503.769000	1.683400
510.952850	1.257100
505.847250	1.556800
505.992200	1.567600
509.033417	1.507800
507.731750	1.583800
509.168117	1.503300
506.694250	1.642900
512.416050	1.405300
516.661367	1.178100
520.137183	0.978500
517.575383	1.117700
511.334783	1.486700
513.208283	1.384400
513.887450	1.402900
509.803967	1.630800
510.160783	1.610300
514.040317	1.383000
508.396733	1.795400
510.906500	1.666900
508.193800	1.842400
514.037833	1.519400
520.826367	1.244700
512.512583	1.773200
514.862450	1.658800
516.824117	1.556100
504.625983	2.336000
510.356200	2.091700
513.534967	1.925400
509.490867	2.194500
517.328067	1.729800
509.269633	2.231000
507.095450	2.366200
512.543500	2.040700
511.088283	2.148500
515.453000	1.918000
518.832683	1.703600
513.589233	2.155700
514.591667	2.123700
524.755400	1.525000
522.506867	1.675500
526.262283	1.560200
529.021217	1.446600
517.985667	2.108100
515.899500	2.248300
526.109750	1.624900
527.896800	1.570900
529.633033	1.442900
535.927600	1.085500
534.614000	1.422100
525.210683	2.007500
524.278067	2.100000
530.953733	1.699100
537.157367	1.382700
537.799367	1.437900
532.577567	1.761300
539.240733	1.355000
541.368567	1.225500
536.286050	1.531300
536.311083	1.551500
524.393183	2.230700
538.891633	1.384400
535.078550	1.608700
536.285683	1.551500
539.235367	1.613400
538.159517	1.701600
544.602917	1.344000
540.211383	1.596500
532.672017	2.185800
529.536017	2.408400
533.454133	2.180900
533.697633	2.206700
541.369467	1.740300
542.494950	1.679200
546.657633	1.439600
543.239850	1.632400
535.329133	2.300000
546.912267	1.683600
542.248567	1.961400
549.346550	1.543000
543.943383	1.866200
548.235733	1.625600
539.328300	2.155900
545.927567	1.754700
547.006950	1.836400
547.101950	1.956400
548.096917	1.938300
549.579833	1.877900
540.228133	2.424800
542.595033	2.304500
549.111067	1.949400
553.676617	1.680000
554.454433	1.645100
559.210850	1.443100
557.508300	1.567600
557.117983	1.592900
556.805183	1.601000
546.696733	2.258900
554.912300	1.801300
554.538917	1.831200
553.646617	1.883700
558.750217	1.598700
559.988167	1.552200
563.316167	1.501500
564.502633	1.470800
565.869950	1.391500
558.307433	1.852400
550.565250	2.330200
560.192750	1.769200
556.990183	1.959200
559.253650	1.827700
562.052267	1.773900
560.253867	1.913100
554.813450	2.263300
564.953983	1.682300
565.623917	1.740300
570.577133	1.554500
567.384267	1.750800
567.449533	1.777400
564.907667	1.932900
570.284333	1.610600
559.247317	2.318700
558.358950	2.484400
571.851833	1.694600
565.360000	2.091400
563.919067	2.201100
568.560367	2.105700
575.802933	1.673900
570.855900	1.985800
571.330533	1.951700
569.715150	2.064400
575.420283	1.735100
570.817167	2.177400
574.505600	1.962400
579.239617	1.697100
571.005633	2.195300
581.720217	1.649700
573.668550	2.179600
581.235217	1.719300
577.539917	1.944300
577.583083	1.951700
576.566750	2.013100
576.782167	2.044500
579.346950	1.929100
574.935517	2.219100
576.345433	2.171000
581.124450	1.885600
581.472983	1.868300
588.102017	1.490700
578.069900	2.087500
585.151100	1.775800
585.442617	1.943100
587.090517	1.856700
597.034950	1.299700
583.535517	2.117100
583.855300	2.230900
592.444950	1.700800
589.377133	1.891400
592.936083	1.702400
590.189700	1.857100
595.779933	1.512800
591.597067	1.908900
591.186550	1.981000
591.615917	1.956000
595.455867	1.737300
607.042867	1.051500
596.183850	1.708300
596.915483	1.672100
587.232967	2.238600
592.993367	2.086500
596.613783	1.976000
603.129217	1.602600
598.636967	1.861500
602.369167	1.660200
596.847317	1.984200
593.400583	2.204000
591.861567	2.258400
599.376183	1.929800
605.697733	1.712600
601.301617	1.987200
605.043417	1.770600
605.453100	1.768600
607.098667	1.773600
602.693783	2.027600
608.515300	1.688800
612.293967	1.435200
607.892267	1.705200
610.566467	1.522800
609.968817	1.707000
606.200017	1.969800
613.480633	1.551500
601.636233	2.259200
606.243000	1.954300
607.706700	1.852600
607.155317	1.907400
604.976150	2.035600
602.344033	2.414900
611.928417	1.920600
608.446667	2.132700
613.203667	1.856400
613.589900	1.833100
616.877067	1.651500
612.718883	1.908200
609.600733	2.105000
616.758767	1.763700
617.724600	1.920100
621.638683	1.714100
613.378283	2.222900
622.694450	1.678300
621.026667	1.903200
623.955983	1.731500
621.209133	1.889300
623.574917	1.741200
619.573517	2.000700
620.581017	1.934400
625.996567	1.778400
623.869450	1.938400
632.768767	1.424400
624.523383	1.913000
625.644467	1.842600
626.793217	1.771200
628.305250	1.698400
625.807183	1.843100
626.358200	1.987900
623.647533	2.250500
631.241200	1.790200
623.512967	2.266800
627.442733	2.022500
623.641183	2.244500
625.138800	2.123200
624.376617	2.193600
628.449533	2.087300
629.451617	2.157300
632.930117	1.975500
638.671000	1.671100
637.252717	1.771800
636.678200	1.840300
630.303767	2.230500
636.932217	1.836600
626.666200	2.470600
627.045167	2.455500
630.902667	2.226600
639.837250	1.870900
629.879583	2.482700
628.469533	2.578400
637.225150	2.064700
638.234733	2.006900
636.553233	2.106200
630.311217	2.503200
634.636133	2.241200
642.045883	1.848200
637.263817	2.140800
633.302750	2.392000
638.410800	2.087200
642.314883	1.860500
641.077967	1.955400
643.838250	1.785100
636.054850	2.261500
642.520050	2.147800
649.827250	1.939600
647.411833	2.101400
648.589033	2.008700
646.677750	2.145400
645.511267	2.343900
654.386850	1.790500
649.816133	2.071700
650.033167	2.070000
645.075750	2.500900
655.885667	1.842000
655.346117	1.893000
658.408917	1.704000
658.093100	1.848700
661.594200	1.647100
658.615717	1.801500
659.769783	1.744100
656.416233	2.042600
661.550700	1.762900
660.445833	1.821500
665.208533	1.527200
658.019700	1.950100
656.737650	2.029300
658.006700	1.962400
655.466333	2.122400
644.014267	2.830500
662.236400	1.765000
663.136033	1.850900
662.140367	2.108100
664.711167	1.974000
662.152033	2.121800
664.552550	2.034700
664.213683	2.137400
670.992833	1.754900
664.213167	2.178300
666.516850	2.067100
673.829167	1.729800
673.624917	1.758300
671.163567	1.934700
671.210767	1.923900
675.053933	1.703900
671.801283	1.881500
672.835033	1.816400
673.407800	1.787200
676.032767	1.641000
669.366550	2.045800
673.582333	2.033300
677.241467	1.860000
672.107483	2.130200
675.617117	1.955400
675.767050	1.946200
673.095583	2.106200
685.199783	1.507100
681.691833	1.784900
687.390517	1.436100
685.817117	1.510200
682.896867	1.673400
676.044567	2.093100
686.864150	1.557400
684.695683	1.775300
687.148417	1.649700
684.594650	1.799800
689.202633	1.504700
679.102800	2.114500
683.600900	1.924600
681.374133	2.170400
682.250450	2.150200
681.303667	2.218500
690.896800	1.658500
698.352483	1.203200
696.562533	1.302500
688.250367	1.757100
681.904183	2.148500
687.406217	2.077200
693.364600	1.768600
690.727450	1.968100
682.868400	2.413900
676.980833	2.780900
691.561467	1.924200
688.429850	2.275300
691.732850	2.133400
690.149783	2.274500
699.331283	1.742000
687.996850	2.409100
700.891083	1.658900
692.911917	2.118000
687.423050	2.471500
695.248033	1.997300
691.726650	2.231500
702.458917	1.639800
702.218017	1.710000
692.681933	2.287700
693.230917	2.303100
696.043733	2.149400
700.784800	1.867600
696.534467	2.129400
695.688533	2.205200
704.022550	1.789300
702.223267	2.043000
704.836583	1.895300
700.911350	2.133700
697.625300	2.335600
705.410767	1.904700
701.278067	2.132700
702.387717	2.097000
702.416900	2.115700
700.720033	2.333000
706.381383	1.998800
694.690183	2.717300
699.444733	2.460200
703.557400	2.340100
706.313767	2.238600
698.950167	2.678100
707.457233	2.214500
703.598600	2.469700
712.372317	1.975800
705.744650	2.467600
709.985400	2.335900
704.389833	2.675600
717.403750	1.906900
715.488100	2.005000
713.212583	2.159900
715.716700	2.019100
706.866300	2.562700
718.696983	1.847000
714.424250	2.104000
709.045433	2.427800
716.891183	2.108600
718.665250	1.998100
703.929600	2.894200
719.792433	1.958000
713.694750	2.335000
720.033833	1.958000
722.328300	1.939600
716.583300	2.350000
713.413900	2.567800
727.324117	1.758900
716.235050	2.448100
717.644300	2.376700
717.860950	2.397700
712.148967	2.757300
722.912917	2.144700
717.183317	2.503500
719.013833	2.594000
724.124100	2.433400
724.185833	2.457800
723.741850	2.497300
730.132750	2.137600
735.885683	1.802000
729.109733	2.222900
729.453150	2.211700
736.443333	1.808900
738.280233	1.703300
736.215033	1.843700
735.446533	2.008700
736.556050	1.943500
732.513033	2.230100
734.883367	2.121000
734.155750	2.167300
733.305900	2.234200
734.948000	2.144200
733.238750	2.272300
725.776183	2.886800
733.048817	2.523300
736.477783	2.354000
738.216300	2.248300
734.902500	2.459200
738.236400	2.271100
738.823067	2.246700
741.539383	2.070800
732.427183	2.634800
734.444333	2.524700
735.307400	2.669200
740.276200	2.491900
742.363117	2.369700
738.454433	2.612300
735.388733	2.812100
738.952967	2.608800
744.854750	2.278300
738.615217	2.746800
742.796467	2.511300
745.958150	2.327200
745.661833	2.342300
742.359383	2.553800
747.683050	2.260300
745.892733	2.377100
744.091183	2.537600
749.193750	2.497900
744.310833	2.805800
754.067000	2.263000
757.360267	2.050200
752.548400	2.463400
749.595600	2.678500
749.073167	2.709900
749.415883	2.698700
749.737600	2.701900
754.108450	2.448400
759.753633	2.237900
755.610333	2.545100
762.848967	2.129100
759.181400	2.325400
742.320767	3.292800
755.355167	2.563800
752.949883	2.721500
758.691617	2.376900
757.660383	2.501300
765.096117	2.096400
766.057217	2.059200
759.730983	2.450900
755.832150	2.760100
762.526300	2.470000
768.858967	2.115300
772.248533	1.918700
767.060650	2.234200
760.105300	2.671600
771.356067	2.043000
769.081950	2.328400
769.521150	2.346700
762.883367	2.758500
774.083133	2.132000
766.261617	2.614500
770.880733	2.350700
765.013533	2.696000
767.837417	2.530800
772.501817	2.424300
772.951767	2.496900
768.827333	2.767700
780.729167	2.058300
777.114817	2.292300
773.080033	2.529200
780.926667	2.034000
776.306767	2.332500
779.781517	2.237700
780.236267	2.360400
784.058383	2.144900
776.059017	2.629500
786.189267	2.103300
784.887983	2.258300
785.590100	2.226100
781.568183	2.497400
784.107867	2.346300
786.597900	2.175100
784.139167	2.358600
780.521150	2.761000
779.342283	2.839400
786.785217	2.411700
788.959517	2.297700
778.961350	2.995600
797.102017	1.934100
798.876217	1.816800
791.983633	2.224100
789.113900	2.399200
795.330817	2.033400
798.366150	1.916200
789.130817	2.487900
788.075433	2.576000
787.308283	2.626100
796.374617	2.145900
794.016717	2.355300
792.270200	2.469400
792.828783	2.451800
791.116767	2.577900
789.359283	2.701100
797.971617	2.211600
797.689933	2.224700
795.888967	2.424600
799.085767	2.451300
804.601517	2.146200
794.827133	2.732300
803.354033	2.222900
797.174983	2.585600
802.531650	2.286700
799.356033	2.477000
797.026217	2.624700
795.256633	3.013100
803.970883	2.518700
799.296517	2.806200
802.348800	2.627800
819.529317	1.752600
808.488700	2.430700
808.947983	2.418500
812.867817	2.194200
799.797917	3.082200
811.622550	2.434600
809.323783	2.565200
810.411650	2.475700
809.128800	2.548900
806.397017	2.705400
800.424667	3.090900
806.319083	2.750000
810.082350	2.539000
815.679117	2.217000
809.223567	2.683500
809.559000	2.897500
810.294250	2.891800
807.859800	3.079000
824.883100	2.043700
816.959850	2.517700
817.897650	2.473000
822.316017	2.369700
820.263367	2.515200
816.731183	2.733200
826.067183	2.183300
825.523133	2.323400
824.610817	2.399700
818.456917	2.762400
824.931100	2.388100
826.718450	2.306800
822.297700	2.568400
818.642183	2.933900
818.791450	2.979400
821.778150	2.830600
825.891250	2.557900
819.483350	2.938600
825.904900	2.571400
827.968100	2.433400
828.013317	2.460900
832.330233	2.347100
832.016933	2.507300
827.931533	2.771600
832.140333	2.527700
838.581633	2.132000
835.129917	2.322900
829.782050	2.657200
836.816583	2.249900
834.176433	2.415200
832.091350	2.819800
840.282767	2.361900
836.986650	2.560300
830.261050	2.966200
827.779800	3.225700
838.892700	2.611600
828.618850	3.220900
831.328383	3.050900
848.636233	2.031200
852.053917	1.806900
852.214450	2.023600
835.455650	2.960800
836.994183	2.902100
842.789717	2.575800
836.120167	3.025800
850.640017	2.229900
849.325650	2.306800
841.977400	2.749300
836.377350	3.106300
849.254133	2.396600
851.096850	2.281300
848.965200	2.413000
852.702583	2.180900
850.734800	2.371600
847.720867	2.583000
856.625200	2.079700
844.407700	2.820100
843.533067	2.851200
845.560850	2.770000
848.869883	2.594000
847.204683	2.703200
838.643533	3.204500
843.326783	2.936900
847.541150	2.953900
852.221450	2.743000
858.590933	2.379500
852.102067	2.775600
857.101133	2.506100
854.528950	2.656300
852.048750	2.805700
851.921917	2.816700
844.651117	3.376800
853.388283	2.888300
863.588000	2.287300
850.527067	3.079800
855.802233	2.805500
852.165600	3.084400
859.064250	2.692300
864.359617	2.400000
877.460600	1.635400
861.272500	2.731000
854.834733	3.138800
858.673250	2.925700
866.180550	2.490400
861.236233	2.831300
863.597817	2.672400
869.774033	2.318900
865.289217	2.603700
865.057067	2.629500
869.956067	2.328600
875.226683	2.278400
866.886800	2.845000
861.619633	3.182000
867.872183	2.825600
863.642383	3.075200
868.420417	2.796900
867.436300	3.081100
873.980767	2.780100
873.122117	2.853000
874.112833	2.812400
873.442317	2.839500
883.708783	2.240600
885.361500	2.147200
878.169783	2.590700
870.468217	3.059100
862.919150	3.513700
879.809300	2.615800
882.752700	2.669500
877.261617	3.023400
877.952167	2.990400
884.478033	2.612600
876.950200	3.038200
880.039850	2.883700
873.423583	3.289700
872.945150	3.326200
878.978717	2.975100
872.081317	3.393600
882.153383	3.061400
894.588617	2.380200
887.129850	2.833600
892.645133	2.494100
895.686417	2.281800
886.950150	2.783800
886.245700	3.109300
898.965450	2.361700
894.508350	2.621500
894.735933	2.595800
888.484950	3.043000
887.692300	3.188500
900.267583	2.464100
900.365450	2.449300
897.897983	2.602100
893.986433	2.839700
902.512167	2.414700
896.495500	2.887900
897.612567	2.854500
900.639050	2.677000
897.533017	2.869800
897.555683	2.870000
900.287417	2.727900
903.673717	2.565000
894.645867	3.158100
907.758050	2.632900
896.165033	3.348800
909.523617	2.592000
898.264300	3.261400
901.917433	3.113000
907.300900	2.794600
909.513050	2.653000
902.192050	3.084400
907.512283	2.916500
906.345900	2.995900
904.789867	3.097500
904.414017	3.111000
904.365317	3.172200
909.148567	2.971500
912.465850	2.754400
909.226067	2.963100
918.263483	2.423000
924.385667	2.058300
925.942417	2.086500
917.136000	2.676700
910.590750	3.101800
920.256100	2.540800
919.407650	2.604700
918.695300	2.772700
913.953767	3.078600
911.705933	3.220700
912.925250	3.170200
923.259783	2.546000
920.289850	2.733400
927.480067	2.300400
915.160200	3.039700
916.818750	3.197800
915.371850	3.322900
928.396033	2.549600
927.148067	2.634600
921.313383	2.984300
917.116617	3.230700
933.295683	2.488100
938.289017	2.190000
923.572900	3.050800
928.290517	2.769000
931.123483	2.693900
931.618800	2.724700
933.694033	2.594900
930.756700	2.780200
933.073483	2.638700
930.846067	2.775300
931.220617	2.741100
930.056850	2.824900
921.748333	3.462800
933.594067	2.945400
936.835350	2.758600
935.661583	2.851700
938.101333	2.735300
943.203667	2.471100
950.510983	2.058500
943.285633	2.477300
941.549550	2.579500
946.531500	2.324500
943.356983	2.513300
944.369850	2.462200
943.110267	2.546700
944.441150	2.486500
943.807067	2.524200
936.416117	3.009600
946.593633	2.387600
942.340283	2.649500
943.119067	2.609400
953.864867	2.348700
948.513267	2.646300
952.803367	2.395200
946.652467	2.755200
941.431850	3.229900
941.934367	3.235800
945.141850	3.076300
944.363800	3.133600
949.388517	2.887200
945.586900	3.229300
952.716117	2.842500
955.314717	2.686800
954.572567	2.720400
949.694817	3.023400
945.941883	3.241100
956.796417	2.605800
952.581683	2.839700
950.399317	2.995800
949.718233	3.068600
951.964500	3.270400
962.527500	2.662600
953.317617	3.203700
954.142500	3.168100
959.621433	2.843000
955.365100	3.088900
960.042083	2.820800
961.768167	2.715900
952.747183	3.348800
961.900950	2.850700
961.838317	2.861400
958.452700	3.056500
959.209533	3.135500
963.802683	2.902100
971.979717	2.445600
960.148650	3.154000
969.177117	2.625900
961.836950	3.134200
965.441083	2.962400
965.575833	2.974400
963.942183	3.091100
961.990550	3.229300
958.825333	3.454400
956.717000	3.597100
972.080383	2.715200
969.102917	2.911500
975.627367	2.518200
980.257500	2.523100
974.053750	2.971600
976.413900	2.830600
979.611467	2.671800
981.556733	2.559800
971.477183	3.154400
971.061900	3.187900
979.490400	2.680600
977.374467	2.996700
984.129100	2.666200
977.260400	3.127600
973.350167	3.387900
986.195250	2.652100
977.808467	3.151200
976.344017	3.255300
982.686167	2.898600
976.927317	3.248100
981.169217	3.009000
987.926733	2.769200
995.340500	2.471500
994.339233	2.540600
985.282267	3.077100
991.581533	2.688200
985.739250	3.049600
988.811633	2.906300
990.877733	2.937500
993.058900	2.815900
990.076317	3.031200
987.483717	3.192300
989.952067	3.047100
991.112483	2.980100
996.358417	2.687700
993.141667	2.913600
1001.304000	2.722900
1000.608650	2.773300
999.922367	2.829900
996.790983	3.038900
1001.674167	2.751900
999.777467	2.861400
998.905800	2.986000
989.662583	3.642200
1005.247550	2.741500
999.491433	3.080000
996.328933	3.293600
998.278967	3.182400
1007.589833	2.611700
1002.458250	2.925700
1005.780217	2.765700
1010.998650	2.743900
1012.151583	2.680700
1011.098300	2.740000
1006.272767	3.051600
1013.638200	2.746300
1000.706750	3.514000
1001.455350	3.495700
1006.814867	3.194400
1010.819950	2.986000
1000.658633	3.615200
1006.651717	3.249300
1003.898133	3.421100
1008.509233	3.438200
1009.002683	3.439700
1012.209517	3.260700
1017.903117	2.929800
1016.185333	3.116600
1018.936383	3.016400
1022.377017	2.839200
1020.295367	2.959800
1018.194150	3.091600
1016.708150	3.188500
1018.534683	3.063500
1019.332633	3.026900
1016.136117	3.218700
1015.841967	3.235500
1019.955417	3.062100
1017.119567	3.513900
1023.148617	3.178200
1025.993900	3.001000
1025.673383	3.008600
1026.947067	3.071400
1023.528417	3.267900
1021.749083	3.374300
1023.904667	3.254100
1035.084550	2.695600
1028.495733	3.109700
1020.911133	3.587900
1021.301567	3.576900
1035.155617	2.753400
1028.379133	3.173000
1025.168917	3.525000
1033.141217	3.125700
1032.230433	3.194900
1032.473100	3.184000
1036.009383	2.973800
1035.802150	2.970400
1034.759367	3.155700
1037.311150	3.097900
1042.070617	2.834100
1029.617733	3.570500
1040.929333	2.906300
1032.129783	3.479000
1036.468450	3.213400
1033.223267	3.435300
1039.140983	3.064700
1050.576317	2.401200
1040.440717	3.015600
1044.145917	2.897700
1044.901800	2.858200
1027.646967	3.894300
1043.483217	2.948400
1040.264233	3.286700
1037.590900	3.493900
1038.253833	3.478400
1045.567683	3.047600
1038.132717	3.516600
1037.300567	3.589500
1046.330333	3.167000
1043.370000	3.348100
1054.792550	2.670700
1048.587483	3.039200
1043.741750	3.447100
1051.004800	3.149500
1046.213517	3.453000
1050.907017	3.184200
1049.776283	3.250100
1042.770317	3.688800
1043.569633	3.695000
1046.232617	3.703200
1052.040950	3.367600
1051.932933	3.404000
1054.172550	3.288100
1061.570317	2.865000
1055.284200	3.238900
1061.561500	3.043000
1058.848367	3.214200
1055.587633	3.397700
1056.322067	3.369300
1051.495617	3.780000
1065.283117	3.001500
1051.808167	3.831300
1060.733883	3.302000
1061.500233	3.238100
1056.319700	3.551200
1062.196083	3.408200
1063.876650	3.316600
1066.064983	3.175400
1063.655550	3.319300
1057.557250	3.739900
1065.802467	3.292800
1071.995800	2.957200
1069.090417	3.153900
1070.344600	3.109300
1070.514050	3.088000
1059.797400	3.807700
1068.717300	3.415900
1072.840367	3.175200
1077.438067	2.916900
1066.394650	3.586600
1067.655583	3.616700
1068.380183	3.594800
1064.866267	3.800700
1063.336367	3.915300
1068.426667	3.629100
1077.281250	3.111700
1079.217950	3.145300
1069.386833	3.788300
1062.905950	4.204000
1074.472600	3.538300
1075.755367	3.457500
1069.088783	3.858200
1073.220900	3.799900
1074.638017	3.753900
1081.112583	3.361700
1085.708800	3.077500
1085.451950	3.210100
1081.105533	3.530300
1091.619150	2.883700
1087.356783	3.178100
1082.633167	3.468600
1092.501800	2.881000
1092.553033	2.940200
1086.691983	3.386600
1083.158467	3.610800
1078.612967	3.889500
1087.589050	3.410500
1096.916600	2.972200
1089.982350	3.383500
1087.226917	3.579300
1083.972133	3.785900
1090.568150	3.385000
1080.210950	4.024900
1094.389983	3.364400
1094.234150	3.386500
1086.825317	3.845700
1089.878500	3.677800
1087.848667	3.799500
1088.503000	3.766300
1094.623683	3.591800
1094.884650	3.586600
1086.736050	4.078900
1096.077167	3.522300
1107.820917	2.878500
1102.137633	3.212000
1093.266567	3.782400
1094.004300	3.718600
1096.831250	3.544600
1101.871917	3.239700
1097.841533	3.590300
1094.837533	3.867500
1103.726933	3.354200
1100.670733	3.560000
1106.480533	3.280100
1100.782200	3.716800
1104.016450	3.510100
1106.578150	3.362500
1108.471333	3.246500
1102.971150	3.586000
1109.486867	3.231300
1108.398883	3.471200
1110.042767	3.388800
1118.615317	2.878500
1117.007733	2.942900
1112.076850	3.253000
1124.833750	2.487700
1112.644483	3.285500
1109.966467	3.467700
1109.723667	3.498000
1113.620750	3.278200
1109.192133	3.719900
1107.277750	3.861400
1103.939750	4.092700
1117.629817	3.324300
1114.743233	3.652100
1113.296400	3.740800
1119.746817	3.384300
1124.399550	3.109600
1122.700517	3.313800
1126.225283	3.145400
1121.373767	3.441600
1121.320067	3.486000
1118.116400	3.688000
1119.203950	3.631000
1127.018817	3.163500
1119.118500	3.637300
1121.480600	3.667900
1127.047233	3.438500
1137.905600	2.847400
1127.233400	3.489100
1126.908500	3.505300
1126.614150	3.542500
1126.030267	3.584100
1123.440983	3.748100
1125.182700	3.656800
1131.800117	3.344700
1134.432767	3.200700
1138.289033	2.944700
1129.698650	3.443200
1125.684117	3.684900
1126.233100	3.685000
1120.433600	4.050100
1128.251933	3.588200
1124.375700	4.294600
1140.455983	3.338000
1143.496633	3.185000
1137.907300	3.513700
1135.952183	3.669500
1134.965583	3.772100
1144.241200	3.250900
1148.689233	2.962700
1136.762050	3.665200
1142.173550	3.377800
1142.108533	3.444500
1131.095617	4.126800
1140.367033	3.617000
1140.298600	3.642100
1140.784433	3.616100
1139.148467	3.704400
1141.221517	3.618000
1139.535783	3.722900
1128.064783	4.432100
1139.083600	4.061500
1146.250417	3.659100
1150.367317	3.431100
1145.743300	3.729700
1152.604633	3.444200
1151.895850	3.523000
1150.433583	3.644300
1151.296717	3.596400
1145.735817	3.928200
1146.254233	3.917000
1153.764783	3.618800
1154.251267	3.647700
1163.270683	3.125000
1167.968433	2.841800
1155.239483	3.594200
1154.749317	3.618000
1159.636683	3.340400
1156.029133	3.556700
1161.217767	3.345300
1165.315117	3.162000
1162.282417	3.347400
1156.363383	3.719000
1163.088800	3.346900
1161.029333	3.493700
1162.653383	3.410300
1167.228700	3.152800
1155.694617	3.889800
1173.744000	3.081100
1169.538233	3.346100
1163.150750	3.736000
1169.521650	3.380800
1165.890417	3.736200
1162.708617	3.956100
1164.454750	3.901300
1161.789633	4.073600
1160.562317	4.158000
1166.111183	3.835700
1172.726050	3.598600
1171.271383	3.758600
1175.047767	3.557700
1173.252850	3.698500
1180.181083	3.265400
1174.019650	3.632200
1169.177133	3.916700
1168.293267	3.968400
1167.875200	4.195000
1180.672650	3.558400
1182.719017	3.459900
1178.994067	3.669900
1177.710800	3.750400
1181.998900	3.512500
1182.353183	3.520400
1177.010750	3.804400
1181.072633	3.632000
1192.450633	3.202400
1184.228967	3.695400
1186.179583	3.578000
1176.487867	4.186500
1186.605417	3.747900
1190.510917	3.550200
1180.611600	4.142500
1190.576900	3.555100
1198.694767	3.081000
1188.826017	3.650700
1187.924333	3.754400
1187.043000	3.834400
1183.343967	4.087800
1185.341000	3.983800
1188.181150	3.828700
1184.972550	4.018600
1190.168600	3.714100
1198.730433	3.211700
1188.310850	3.869800
1187.498033	4.017200
1193.604417	3.679500
1194.146200	3.682900
1189.006717	4.001700
1191.196483	3.935600
1199.894100	3.435700
1200.725433	3.387800
1192.887817	3.853200
1188.662617	4.416300
1198.572483	3.873500
1199.687733	3.798800
1206.828600	3.394000
1206.749983	3.552500
1200.780917	3.932700
1209.663767	3.419400
1200.331817	3.993900
1207.347683	3.643100
1212.216400	3.371500
1205.689267	3.801000
1200.317100	4.128100
1204.180117	3.922200
1207.752317	3.711900
1204.771133	3.900500
1201.914017	4.084200
1199.784883	4.230800
1209.826333	3.672800
1209.349050	3.848800
1203.623900	4.393000
1212.553333	3.876500
1206.328633	4.253600
1220.503250	3.417100
1214.850050	3.760000
1214.372233	3.800600
1207.207767	4.256400
1215.971683	3.749900
1215.394933	3.925100
1211.192317	4.203600
1211.628717	4.214100
1218.438267	3.807600
1217.915183	4.098500
1217.590717	4.137300
1219.223200	4.046800
1221.271467	3.914400
1220.911833	3.956900
1223.968583	3.809000
1222.819283	3.918800
1221.579667	4.006200
1222.268367	3.953700
1225.145267	3.791100
1229.084400	3.574000
1224.281983	3.853100
1229.949367	3.513900
1228.679433	3.592100
1225.227217	3.845700
1223.618183	4.221200
1225.163933	4.150400
1227.402850	4.023700
1235.030100	3.559900
1229.277667	3.926400
1226.470500	4.102300
1223.996450	4.468900
1227.761600	4.294000
1229.605617	4.214100
1228.927383	4.252700
1236.155133	3.959300
1239.917417	3.787200
1244.960883	3.484700
1238.745817	3.846900
1233.536167	4.157100
1228.662950	4.467700
1240.078317	3.956700
1240.242667	3.995700
1244.930150	3.714400
1236.383850	4.248700
1240.218117	4.055100
1248.075950	3.574300
1236.667550	4.266700
1241.657750	3.977500
1243.997333	3.969500
1249.054967	3.822300
1245.028267	4.086600
1245.361117	4.086600
1245.759083	4.068200
1254.121867	3.584100
1250.852017	3.769800
1246.627983	4.034600
1242.663183	4.252700
1245.898783	4.339700
1250.127983	4.123100
1258.578500	3.658600
1258.939767	3.651600
1265.230267	3.262500
1259.603933	3.557900
1261.134567	3.477000
1259.690050	3.583600
1260.768467	3.507900
1256.439933	3.755000
1257.975900	3.864100
1258.566200	3.934600
1255.749983	4.112000
1264.942483	3.575000
1259.983500	3.888700
1253.743583	4.255100
1263.045983	3.702800
1262.352383	3.731300
1265.870633	3.712400
1269.323783	3.644000
1271.825117	3.480900
1264.931067	3.900000
1262.981583	4.009400
1269.309667	3.628500
1274.689950	3.311200
1264.343500	3.925000
1277.442183	3.210500
1269.775017	3.882600
1267.437333	4.040900
1271.878917	3.813600
1276.437583	3.549500
1269.759567	3.946500
1265.023067	4.236900
1270.110767	3.974700
1274.319733	3.729200
1270.475667	3.939000
1273.996233	3.734300
1273.430583	4.023200
1280.549367	3.658500
1280.044400	3.695200
1274.718367	4.016700
1264.658850	4.640800
1267.092800	4.500400
1267.092233	4.510400
1271.105050	4.281700
1272.660600	4.214500
1270.758750	4.350100
1271.861783	4.506500
1282.817633	3.963200
1278.010233	4.292000
1280.008050	4.192900
1282.752783	4.025000
1282.462733	4.040300
1279.650283	4.343600
1281.953800	4.370500
1290.510800	3.887500
1287.640900	4.053100
1282.846000	4.340200
1286.340367	4.176300
1293.271900	3.785200
1283.262600	4.384600
1285.275317	4.284600
1286.167000	4.234900
1285.639950	4.279900
1289.088417	4.386900
1295.913583	4.035200
1300.748783	3.766100
1292.713917	4.250100
1297.853467	3.944700
1300.344217	3.808200
1292.627733	4.273700
1294.422483	4.190600
1300.971767	4.107600
1302.792600	3.986800
1300.981467	4.094700
1300.342700	4.150600
1303.231117	4.095300
1309.357183	3.775400
1304.654050	4.089400
1310.137917	3.765600
1313.056017	3.591300
1313.030283	3.575000
1304.779683	4.111700
1300.962750	4.407400
1302.997467	4.310400
1310.638967	3.856200
1307.597550	4.044400
1305.683533	4.162700
1304.575450	4.218100
1306.131750	4.130500
1308.265667	4.024200
1305.498383	4.567400
1311.986767	4.215300
1305.309733	4.623800
1315.891250	4.011100
1306.894100	4.533700
1306.271733	4.590800
1317.780250	3.933400
1313.249483	4.206200
1314.274467	4.265100
1317.999467	4.065000
1320.433067	3.932700
1321.893100	3.863200
1328.891933	3.440600
1315.823767	4.218600
1316.637600	4.232200
1313.155633	4.508000
1322.433167	3.964200
1324.727550	3.844900
1322.845933	3.956600
1321.691133	4.031900
1323.842733	4.001600
1329.239067	3.807600
1330.047283	3.784400
1323.542367	4.182600
1329.134700	3.859300
1329.948467	3.832200
1326.940650	4.036900
1326.688967	4.066500
1338.804900	3.356800
1332.065267	4.076100
1332.912367	4.010100
1336.697867	3.801300
1330.095100	4.218400
1332.647250	4.125100
1330.150683	4.319600
1331.518367	4.243200
1334.787167	4.086600
1330.830650	4.335700
1330.044300	4.402000
1332.622200	4.347100
1336.357867	4.161000
1335.682683	4.240700
1340.804583	3.950000
1337.889017	4.147800
1336.512100	4.240300
1340.547633	4.037600
1339.689983	4.111100
1337.917617	4.387800
1346.109100	4.057300
1343.270183	4.273700
1351.668150	3.810100
1350.385967	3.918300
1347.256550	4.132000
1348.776467	4.061400
1341.024683	4.654100
1347.149717	4.331400
1348.187600	4.264000
1338.630100	4.853800
1347.312433	4.394300
1351.630117	4.167900
1355.720100	3.928900
1356.877950	3.875500
1354.065683	4.081100
1348.756550	4.400200
1357.065267	3.904800
1368.702317	3.209700
1361.467750	3.871600
1364.450767	3.764100
1361.025167	3.981300
1362.007633	3.927800
1363.434933	3.885500
1366.150217	3.693000
1358.263367	4.137300
1356.462400	4.295500
1356.599083	4.519400
1362.879467	4.217700
1363.515533	4.210100
1364.531483	4.199600
1362.506733	4.362800
1362.609183	4.361000
1367.426017	4.168800
1367.328767	4.254000
1373.567983	3.891500
1368.469850	4.219900
1373.274033	3.947600
1372.336767	4.126500
1368.882583	4.346300
1371.422283	4.222100
1374.353983	4.052600
1377.033667	3.886500
1378.203650	3.830800
1377.656933	4.056800
1379.528567	3.943200
1377.803000	4.055500
1373.685167	4.316700
1361.741667	5.060400
1377.285617	4.161900
1380.130600	3.983800
1380.732717	3.953700
1374.092617	4.547100
1372.725533	4.763900
1376.915933	4.531400
1377.087633	4.524800
1392.828500	3.598600
1388.663750	3.845500
1378.833350	4.423900
1379.171067	4.440300
1376.539767	4.724700
1383.181067	4.510200
1388.141350	4.205500
1377.419633	4.850600
1382.995583	4.519400
1380.726733	4.686500
1375.672183	5.018000
1383.684217	4.569000
1389.351100	4.266700
1387.820317	4.636500
1395.457050	4.192900
1394.468267	4.267800
1394.764267	4.242900
1399.236850	4.104100
1396.907667	4.247400
1397.415400	4.228900
1392.332350	4.546000
1402.763533	4.052600
1396.581683	4.450700
1397.627050	4.377700
1403.487267	4.034100
1399.474450	4.275400
1393.172400	4.665100
1384.146567	5.265000
1398.861517	4.368900
1402.740067	4.141800
1398.189117	4.420500
1406.142517	4.106700
1402.608133	4.512200
1410.784183	4.031300
1413.458217	3.886500
1415.117100	3.797200
1408.033383	4.212500
1411.706783	3.997100
1409.240517	4.147500
1407.304533	4.292300
1399.182933	5.065700
1411.303933	4.373300
1406.679617	4.674900
1400.794200	5.039800
1415.209533	4.348400
1410.980833	4.623800
1413.655483	4.474100
1410.689700	4.651000
1411.086833	4.778900
1411.071600	4.793500
1415.808733	4.517600
1418.708100	4.351000
1416.179967	4.576800
1417.965333	4.476800
1418.984350	4.428400
1421.946900	4.255300
1417.230433	4.592900
1411.600500	5.040700
1413.489383	4.974500
1420.610200	4.573900
1426.066033	4.250300
1430.811733	3.951800
1418.868017	4.676100
1430.647750	3.989200
1431.465433	3.923900
1425.074350	4.314700
1414.907667	4.928400
1412.932883	5.413100
1420.843617	4.937700
1424.909817	4.722600
1419.138333	5.084000
1427.930283	4.754900
1434.205667	4.378200
1433.599833	4.423100
1429.266083	4.664900
1432.966683	4.492400
1435.871050	4.359100
1428.124767	4.827600
1433.130867	4.537500
1435.393167	4.411500
1434.719767	4.476600
1436.328833	4.373300
1431.226667	4.684500
1433.457183	4.548500
1434.280183	4.519100
1439.229633	4.333100
1443.178500	4.371100
1440.730000	4.549000
1442.163367	4.458600
1442.170817	4.461600
1444.482417	4.299900
1437.277667	4.756200
1440.291300	4.772800
1446.903550	4.384600
1437.639783	4.952000
1448.892750	4.290100
1445.398933	4.655300
1452.971200	4.235500
1449.990600	4.428100
1443.513417	4.833300
1449.005883	4.495700
1440.048500	5.036500
1444.497650	4.858900
1447.239100	4.747000
1454.447467	4.327200
1454.096000	4.356700
1457.618650	4.148200
1450.497283	4.589900
1457.938550	4.163500
1451.576167	4.529400
1456.112417	4.427400
1451.225000	4.852600
1449.676483	4.986200
1459.608950	4.436800
1452.036533	4.888100
1453.131650	4.846000
1452.838317	4.876800
1448.848167	5.124900
1450.260450	5.050300
1454.141150	4.844800
1459.878633	4.571900
1467.319817	4.288800
1461.320567	4.646100
1460.370750	4.732900
1469.150967	4.208100
1458.431750	4.853500
1450.947750	5.297800
1460.253367	4.766700
1458.018933	4.913600
1457.125083	5.126900
1462.933983	4.810400
1462.022633	4.889300
1460.030383	5.023100
1464.396700	4.966000
1468.479067	4.711500
1466.937233	4.849100
1475.298833	4.349900
1472.614017	4.504800
1478.198300	4.174600
1471.978667	4.655700
1475.319250	4.520200
1466.194267	5.078400
1473.359517	4.681200
1470.297650	4.914400
1472.613450	4.783000
1475.502917	4.689600
1475.121983	4.926200
1479.475967	4.707600
1480.811633	4.642400
1485.517583	4.382900
1485.481800	4.387000
1479.600083	4.737200
1483.609700	4.490500
1477.590500	4.876000
1481.019317	4.683900
1482.250300	4.646800
1489.537400	4.528900
1487.547450	4.670500
1484.577167	4.873800
1488.489783	4.662200
1487.124500	4.796200
1480.873400	5.160100
1477.154917	5.440500
1487.004567	4.879500
1490.459383	4.680200
1489.299367	4.763700
1494.283417	4.646100
1493.993500	4.762000
1498.077767	4.512300
1488.996133	5.045900
1491.472167	4.929300
1489.970600	5.024200
1498.225483	4.648700
1496.949800	4.876300
1490.157700	5.302300
1493.575817	5.112900
1502.075050	4.616200
1505.113167	4.432200
1502.850400	4.558600
1505.509183	4.415900
1497.954400	4.875100
1490.934667	5.288400
1489.374067	5.444100
1501.914483	5.052500
1501.259100	5.102800
1504.847800	4.900300
1509.289850	4.668700
1516.142283	4.403600
1511.367067	4.690800
1509.947217	4.762800
1511.795200	4.675300
1509.608917	4.929300
1507.116567	5.118900
1510.658600	4.896400
1512.628767	4.795200
1507.960933	5.055200
1510.826550	4.890100
1510.285183	4.924700
1505.610583	5.207900
1510.897867	5.000100
1507.142400	5.291200
1508.280833	5.229800
1520.633333	4.516700
1512.165800	5.025400
1511.930733	5.075000
1521.363367	4.500000
1519.097650	4.657900
1520.162800	4.594300
1507.505000	5.360500
1514.688300	5.077600
1526.477633	4.588700
1526.262917	4.626000
1527.997917	4.527000
1522.718850	4.850200
1522.169167	5.050800
1529.683900	4.626700
1529.964050	4.607800
1530.163983	4.597400
1529.228667	4.798200
1527.755967	4.897800
1530.137517	4.765500
1527.264033	4.943000
1529.924467	4.905900
1537.083567	4.533600
1535.941400	4.632100
1527.323983	5.138300
1529.247000	5.052700
1522.385933	5.492600
1523.491500	5.578600
1529.716500	5.294800
1538.476717	4.794900
1536.786333	4.904000
1525.070850	5.619700
1534.324300	5.074300
1540.450717	4.731300
1534.775600	5.052700
1526.800883	5.591000
1533.812800	5.280400
1540.913767	4.895400
1539.738450	4.987000
1530.885250	5.529100
1547.228617	4.575300
1544.388150	4.756600
1544.607017	4.754100
1543.476967	4.833000
1547.789800	4.815100
1546.805533	4.942400
1546.950433	4.923500
1548.364533	4.823600
1551.209767	4.668300
1553.484883	4.542500
1557.233567	4.392300
1557.329667	4.413000
1548.362067	4.940400
1549.746400	4.874500
1549.990467	4.914600
1548.363700	5.005300
1549.002917	4.978500
1550.025400	4.926700
1544.731667	5.498700
1548.419250	5.373400
1553.441117	5.093400
1560.629350	4.661500
1554.683050	5.047300
1551.640917	5.244000
1556.845233	4.932500
1558.002200	4.877500
1552.108233	5.273600
1556.711717	5.319000
1561.685550	5.029300
1559.404600	5.185000
1564.961317	4.921800
1571.170817	4.679400
1565.837300	4.996000
1564.305417	5.070000
1571.242017	4.689300
1569.096333	4.868600
1570.448100	4.787200
1567.146350	5.015800
1569.387100	4.892200
1561.735350	5.392900
1557.273600	5.650000
1564.477517	5.253900
1558.428783	5.624900
1564.212300	5.645200
1572.236767	5.161200
1571.389733	5.220200
1570.361967	5.318100
1571.857283	5.316500
1571.588750	5.407600
1578.720417	4.966800
1577.423033	5.069900
1577.889150	5.044000
1580.812183	4.872500
1576.822317	5.153100
1576.550983	5.292500
1584.447783	4.836500
1582.371367	4.963200
1583.253350	4.914400
1579.799650	5.127700
1577.682333	5.255300
1571.727683	5.631200
1579.640900	5.201200
1582.795583	5.332100
1591.189733	4.862900
1596.246033	4.606700
1590.983300	4.898500
1586.684283	5.144900
1584.407000	5.282200
1592.979150	4.752700
1589.958867	4.950300
1581.670617	5.626500
1586.348383	5.393600
1595.647833	4.850000
1595.909283	4.836800
1600.616150	4.558300
1593.010867	5.018700
1587.087667	5.406600
1592.658100	5.051200
1580.239750	6.093700
1591.699667	5.445900
1596.304167	5.202900
1598.805083	5.093600
1601.411800	4.969000
1601.737050	4.957600
1600.867000	5.015500
1602.763650	4.892200
1610.817933	4.454000
1604.094483	4.833800
1604.846200	4.808200
1601.891533	5.147600
1598.048033	5.442500
1600.258017	5.313900
1603.906067	5.102400
1604.231067	5.062200
1599.803767	5.329500
1608.046450	4.844800
1604.240417	5.081400
1605.912317	5.265000
1619.628850	4.457200
1608.980500	5.096500
1611.120200	4.966000
1613.598533	4.923200
1614.063183	4.969100
1608.046983	5.338400
1607.954650	5.365300
1614.806617	4.968600
1616.481267	4.889400
1618.097700	4.914400
1618.284233	5.013800
1606.012450	5.762500
1608.396167	5.645700
1609.233533	5.614400
1617.197033	5.151800
1617.635983	5.138300
1619.500550	5.039200
1610.552933	5.614400
1619.400817	5.318700
1620.462050	5.291200
1629.601600	4.771900
1622.508550	5.194000
1617.741767	5.481300
1615.544550	5.610400
1618.177467	5.466900
1622.105550	5.234200
1619.114400	5.717800
1621.614283	5.593700
1617.806417	5.858700
1627.331183	5.303000
1631.480150	5.175100
1639.379850	4.736500
1621.429600	5.797300
1633.797283	5.080100
1626.908083	5.500100
1628.487600	5.413900
1634.654367	5.152200
1633.171200	5.346100
1630.240250	5.533300
1633.313867	5.346900
1633.867583	5.317400
1639.397600	4.983100
1639.933967	4.967100
1639.952250	4.962400
1636.510633	5.228300
1636.027883	5.497700
1638.529333	5.391500
1642.069550	5.206600
1646.903283	4.924400
1639.163683	5.397800
1640.216183	5.325800
1640.867283	5.301200
1640.593483	5.317400
1643.412850	5.474800
1649.971083	5.122700
1648.770650	5.174500
1648.686350	5.196400
1645.301417	5.432100
1647.831817	5.292900
1647.499817	5.313900
1649.060000	5.238100
1646.849500	5.381200
1651.503450	5.107000
1649.503367	5.409600
1649.042417	5.517300
1639.037283	6.158600
1644.692783	5.837300
1648.361850	5.635900
1646.813700	5.727100
1646.976483	5.712500
1652.801133	5.380400
1655.752217	5.320200
1657.135583	5.415800
1658.821933	5.312600
1657.984367	5.364300
1653.580400	5.617300
1649.753867	5.851500
1651.356083	5.784200
1652.852717	5.734500
1664.870850	5.035000
1659.494767	5.658300
1662.225467	5.520000
1657.428600	5.823400
1660.312483	5.663600
1674.353133	4.985900
1665.465183	5.520800
1669.608000	5.283700
1672.079517	5.137800
1678.507083	4.876100
1667.959300	5.561500
1673.930367	5.206200
1670.043417	5.455800
1672.922217	5.319000
1671.978733	5.367800
1670.467683	5.444000
1668.143350	5.602600
1670.054550	5.503600
1669.108150	5.566000
1671.651533	5.446100
1675.007533	5.279000
1669.188933	5.637800
1673.702533	5.381000
1670.674333	5.561300
1676.207500	5.259700
1677.217850	5.209300
1671.534917	5.547600
1671.689350	5.545000
1686.761967	5.254500
1691.282050	4.990000
1687.132317	5.233500
1683.653567	5.436600
1684.408467	5.546100
1683.198767	5.640000
1694.812267	4.958700
1686.139667	5.486100
1678.610867	5.954400
1686.335800	5.503600
1680.550267	6.015900
1686.208650	5.716000
1690.553600	5.479300
1687.470400	5.687800
1700.783117	4.881000
1697.399200	5.107600
1694.370317	5.267400
1687.466783	5.688200
1697.617733	5.228300
1699.180417	5.254500
1688.538567	5.901600
1691.193467	5.760000
1687.586667	5.988000
1692.817350	5.683000
1695.601267	5.587200
1695.642500	5.762800
1699.153650	5.573800
1703.100417	5.369100
1695.017117	5.830500
1699.580450	5.712400
1695.951450	5.971300
1704.241850	5.522500
1704.777100	5.513500
1696.518617	6.016800
1701.543483	5.729000
1705.681900	5.499700
1702.775233	5.660300
1703.127617	5.834100
1705.570717	5.709600
1702.201867	5.925000
1709.637750	5.484700
1700.687250	6.169900
1713.060133	5.465600
1714.372033	5.381900
1716.450317	5.273100
1711.234467	5.581200
1711.966833	5.538800
1702.361633	6.098900
1715.264350	5.333800
1716.074350	5.273200
1712.332067	5.481600
1714.093917	5.440200
1716.457067	5.402700
1717.485567	5.364000
1714.065033	5.589500
1716.838150	5.458600
1722.347167	5.274900
1721.967783	5.333900
1714.766600	5.789500
1717.677667	5.619900
1725.614917	5.164800
1720.808683	5.467100
1716.463833	5.734400
1719.651117	5.571600
1721.932900	5.768500
1717.770567	6.025200
1728.439433	5.408300
1726.408850	5.529700
1724.897667	5.709300
1730.665633	5.452700
1728.473217	5.595000
1726.444167	5.742600
1722.385100	6.010600
1722.278800	6.017500
1727.098700	5.737000
1731.924133	5.460200
1732.674717	5.540700
1729.701650	5.913400
1732.213000	5.788000
1729.880333	5.958500
1729.935933	5.977400
1740.845100	5.336800
1734.740517	5.699100
1740.387350	5.336500
1741.341133	5.321900
1746.931200	5.240800
1747.574900	5.201200
1745.436350	5.324800
1739.174200	5.705500
1736.392750	5.910700
1726.382700	6.494500
1741.926300	5.607400
1743.633500	5.530000
1746.133883	5.639300
1743.943450	5.843200
1751.213500	5.422300
1747.137283	5.666900
1749.476683	5.524100
1749.190450	5.548900
1741.057450	6.072700
1751.623633	5.442200
1743.630367	5.935500
1744.253150	5.922100
1754.876417	5.478300
1746.374533	6.161600
1746.386100	6.164200
1749.007083	6.042500
1754.119483	5.762600
1753.942750	5.785300
1753.756783	5.804000
1754.418583	5.751200
1757.937467	5.595000
1758.295100	5.788900
1753.559800	6.105700
1750.651933	6.257300
1757.671467	5.873400
1760.135817	5.735400
1760.402483	5.736200
1767.438317	5.342100
1761.914567	5.670000
1771.536500	5.340700
1762.714467	5.861400
1761.218017	5.959200
1763.129167	5.861400
1770.304567	5.537700
1765.648517	5.808300
1764.522033	5.887400
1766.912050	5.769100
1768.302333	5.791700
1764.170550	6.136900
1762.998950	6.260800
1772.273667	5.753400
1768.160733	6.043100
1770.970317	5.886000
1771.947750	5.838400
1768.898350	6.040000
1769.083067	6.059400
1764.716733	6.324500
1771.610650	6.062200
1773.537467	6.085800
1777.581817	5.851200
1776.737500	5.929300
1776.289283	5.996000
1773.711950	6.268900
1776.382850	6.154900
1775.770933	6.221900
1781.887650	5.876200
1778.011317	6.141900
1774.248400	6.376900
1784.587383	5.957300
1791.588200	5.574100
1792.613417	5.502300
1784.632367	5.976300
1786.848850	5.878600
1783.075733	6.111200
1787.798167	5.817900
1787.481350	5.858500
1789.802183	5.811500
1786.846083	6.071000
1787.983000	6.012400
1787.951617	6.049800
1791.791867	5.841000
1791.693733	5.855000
1788.481433	6.169400
1795.567883	5.867300
1793.277633	6.035600
1799.356500	5.670100
1804.517000	5.362900
1801.588667	5.530500
1806.443517	5.289900
1805.834267	5.495700
1807.982100	5.361100
1800.681733	5.805200
1798.273350	5.961100
1794.093600	6.210100
1792.480983	6.324500
1794.454817	6.232500
1801.147850	5.823400
1804.416967	5.909100
1812.309117	5.463000
1804.326483	5.965700
1807.725733	5.773400
1811.610867	5.664300
1801.500450	6.327700
1796.803150	6.670600
1813.906500	5.668300
1801.710433	6.392000
1808.592067	6.006300
1802.234817	6.488100
1808.546200	6.212200
1806.414817	6.372300
1812.174900	6.027100
1812.854783	6.010700
1816.233517	5.810400
1816.483117	5.800800
1819.657983	5.596700
1817.893683	5.699900
1814.303417	5.912400
1818.718683	5.689100
1821.544383	5.600600
1817.369033	5.856200
1814.699567	6.045600
1817.687450	5.880400
1816.470683	5.966600
1822.924900	5.598400
1821.541650	5.790100
1815.051750	6.218200
1828.536050	5.443300
1821.550833	5.889500
1823.570467	5.778300
1820.277867	5.970300
1824.900383	5.946800
1828.845767	5.761500
1828.640117	5.803500
1828.566233	5.816300
1832.192533	5.744300
1831.384367	5.853000
1828.495417	6.057000
1832.282383	5.834900
1831.428067	5.894400
1831.253667	5.931600
1831.597400	6.013300
1834.092300	5.987500
1838.113917	5.784600
1831.391917	6.221400
1831.350533	6.233300
1838.293483	5.827700
1841.333967	5.671800
1828.739217	6.428700
1832.089033	6.255800
1836.792550	6.104200
1835.436933	6.211700
1832.507917	6.405900
1834.072067	6.335700
1836.086467	6.252300
1838.513917	6.109800
1843.107983	5.869100
1837.535733	6.230900
1844.258317	6.103500
1851.095167	5.775300
1849.330650	5.905600
1848.867467	5.951100
1838.705700	6.558700
1852.711267	5.744700
1844.589550	6.239200
1846.856867	6.136200
1852.800933	5.936300
1847.006033	6.303500
1851.682367	6.066000
1849.981633	6.189500
1851.250817	6.150600
1850.304500	6.269500
1858.788333	5.798000
1851.551200	6.271300
1856.589767	6.024300
1852.796317	6.354000
1855.819883	6.190100
1858.589700	6.038800
1862.052867	5.841900
1862.138967	5.859600
1853.010967	6.414000
1848.740983	6.685100
1850.412383	6.589700
1862.967450	5.865400
1853.941150	6.423700
1867.830733	5.938700
1867.559267	6.059400
1874.891133	5.652500
1867.996550	6.053800
1864.372383	6.293000
1868.268200	6.072700
1866.194650	6.211900
1858.442367	6.690000
1883.828567	5.495700
1876.593667	5.934600
1879.871683	5.754800
1873.940583	6.127100
1868.860950	6.478600
1871.188483	6.396500
1876.046967	6.107700
1878.147283	5.989400
1878.581733	6.023000
1885.833700	5.714800
1882.923217	5.888700
1873.547900	6.479800
1881.635267	6.013800
1885.670500	5.768500
1880.906317	6.066600
1882.642933	5.998100
1880.797367	6.099300
1881.417050	6.079000
1881.830783	6.076700
1883.348433	6.344300
1890.546633	5.969300
1886.723867	6.206100
1889.906733	6.009800
1892.183367	5.877900
1885.261350	6.290800
1887.661533	6.267200
1891.461017	6.173400
1885.659433	6.565700
1892.463633	6.143300
1889.432817	6.319200
1889.737683	6.323900
1893.746600	6.179500
1896.636017	6.146100
1891.461683	6.470000
1895.574383	6.230000
1896.207800	6.203800
1905.524567	5.769000
1898.080783	6.214700
1893.417600	6.508000
1891.217900	6.662200
1891.489517	6.669300
1898.370867	6.258000
1890.772283	6.734600
1892.157150	6.666100
1900.362400	6.208000
1906.663600	5.820100
1903.796533	6.307400
1908.012133	6.116000
1909.106150	6.066700
1893.405517	7.016100
1903.320017	6.439800
1903.739567	6.422400
1903.735083	6.433100
1903.198283	6.465200
1909.053050	6.328000
1910.724317	6.267300
1914.834717	6.031500
1906.232033	6.555200
1917.260150	6.083200
1916.245133	6.183200
1907.979617	6.697200
1912.706267	6.397200
1905.968083	6.898400
1910.250233	6.749000
1913.095617	6.599400
1918.158167	6.288600
1915.124183	6.472100
1918.370433	6.308000
1909.422333	6.839600
1915.995100	6.463300
1909.792117	6.858000
1915.516417	6.799800
1925.143917	6.251700
1921.516883	6.455300
1926.052800	6.176800
1924.761033	6.293000
1928.428550	6.072700
1916.463150	6.797200
1922.787433	6.431300
1920.725633	6.812900
1929.609933	6.371000
1927.725117	6.492300
1922.463300	6.812200
1927.592717	6.507000
1923.262717	6.765000
1920.984233	6.911900
1927.335667	6.525600
1924.734700	6.691600
1932.162100	6.260200
1926.804833	6.707300
1929.742500	6.761200
1932.433017	6.635700
1937.475533	6.372200
1940.789817	6.163200
1936.960433	6.392600
1941.235983	6.159200
1940.142367	6.221400
1937.174117	6.403500
1940.724817	6.453600
1936.272167	6.762600
1934.449983	6.889100
1934.749450	6.881200
1947.243200	6.162400
1943.240633	6.418100
1950.385233	5.991200
1948.961200	6.084100
1953.187250	6.096700
1952.464667	6.222600
1949.210783	6.420200
1947.464917	6.541500
1952.600883	6.243500
1943.042633	6.812000
1943.619933	6.831500
1942.423500	6.888700
1948.852833	6.524600
1944.476117	6.800700
1945.630317	6.956100
1950.548467	6.803700
1956.057500	6.497500
1955.933233	6.510800
1952.762417	6.717000
1955.049917	6.566400
1959.048083	6.333500
1949.809867	6.891600
1947.102617	7.077300
1956.160283	6.753200
1954.876883	6.852200
1948.354483	7.258700
1954.412783	6.906200
1956.709333	6.811700
1961.645750	6.529000
1965.186567	6.320100
1957.014017	6.800700
1971.321833	6.291500
1962.437483	6.835400
1962.999183	6.827300
1963.363000	6.814000
1973.189250	6.381100
1969.474250	6.624100
1965.538683	6.876200
1963.676183	6.989600
1970.688050	6.729400
1962.637817	7.214100
1972.090267	6.665400
1969.826983	6.815600
1968.014867	6.978600
1974.996183	6.586700
1971.199700	6.831700
1971.364633	6.835700
1968.867433	7.000700
1976.980867	6.534900
1970.471367	6.966000
1978.612217	6.677100
1981.355283	6.521300
1980.114133	6.617600
1982.932467	6.480900
1980.477767	6.778800
1980.551200	6.821200
1978.956450	6.931600
1981.487450	6.801400
1975.281483	7.205600
1976.178333	7.170800
1973.346767	7.344600
1987.768983	6.487100
1986.311733	6.574700
1985.818817	6.609900
1995.666000	6.275500
1994.163817	6.458700
1988.920517	6.798900
1986.364683	6.932900
1986.485483	6.922400
1986.146867	6.957000
1988.354083	6.842000
1986.076667	6.983700
1986.474850	7.147000
1995.313550	6.769600
2007.562750	6.065200
1997.024783	6.694100
1998.660167	6.574500
1998.497917	6.606900
1998.184983	6.623000
1998.069833	6.645800
1998.554000	6.659500
2000.710717	6.786000
1999.968000	6.865600
1998.168150	7.006300
1994.156817	7.263300
2006.192583	6.564200
2009.542000	6.358600
2004.218517	6.808500
2012.894033	6.272000
2012.080200	6.344800
2008.876717	6.538200
2006.734367	6.824700
2011.797583	6.565700
1995.345850	7.586800
2007.701150	6.853300
2006.496167	6.951000
2005.064083	7.053500
2009.509833	6.913400
2009.231067	7.044300
2013.759333	6.786800
2009.626533	7.045100
2008.078700	7.162600
2029.387617	6.028500
2024.231100	6.319900
2017.308533	6.738800
2018.776783	6.656900
2011.270967	7.119600
2018.966917	6.675900
2020.765650	6.667000
2018.305633	6.857900
2020.283200	6.757300
2015.120283	7.085000
2024.423567	6.532500
2024.416900	6.559900
2017.967650	6.939400
2022.039667	6.741600
2020.659133	7.135700
2029.339300	6.638500
2019.043367	7.265100
2031.309983	6.542600
2032.147867	6.635400
2025.192983	7.071200
2041.533417	6.135600
2030.514683	6.809000
2034.586633	6.597200
2034.751283	6.576800
2029.525317	7.001100
2037.539983	6.656900
2031.434533	7.053500
2030.663017	7.110000
2031.546417	7.126500
2029.839983	7.349900
2037.209517	6.927600
2032.471983	7.215500
2031.001600	7.353400
2038.460233	6.971300
2039.242550	6.920800
2037.296350	7.038400
2037.782683	7.034600
2042.239233	6.887600
2043.231367	6.870600
2042.634950	6.940600
2043.272300	6.904000
2044.153350	6.869200
2042.340433	6.984800
2048.930633	6.607700
2048.686517	6.624300
2042.122850	7.016800
2049.904117	6.557400
2050.492250	6.664900
2051.315433	6.850100
2047.834650	7.091800
2056.548883	6.569000
2048.041400	7.091800
2040.502983	7.551800
2044.334550	7.351000
2059.003733	6.518900
2048.744083	7.151300
2051.937750	6.974200
2055.185700	6.813100
2055.612883	6.793400
2062.834800	6.383500
2060.469250	6.829000
2062.221867	6.753000
2058.822567	6.976800
2062.192967	6.800400
2067.311100	6.666400
2064.695083	6.862100
2059.816250	7.169800
2064.055850	6.911200
2065.357950	6.853000
2058.322933	7.280600
2063.775733	6.953900
2065.346000	6.865000
2070.094900	6.572200
2072.386517	6.439800
2067.436367	6.927000
2074.650700	6.681100
2077.551367	6.508500
2073.545133	6.768500
2075.394333	6.664100
2072.622917	6.828000
2062.807417	7.494600
2071.018050	7.176100
2074.489367	6.996600
2070.993217	7.223100
2082.326383	6.536000
2077.398683	6.858200
2073.071933	7.118000
2086.656700	6.532900
2072.732900	7.381300
2074.167967	7.314600
2081.211850	6.904000
2085.450867	6.793500
2082.964883	6.989300
2095.779550	6.224800
2082.774667	6.993600
2076.327133	7.405700
2081.729067	7.092300
2086.239400	6.883900
2084.382000	7.050700
2086.530300	6.920800
2086.154833	6.962900
2076.923833	7.530800
2082.159767	7.239900
2080.856633	7.344800
2087.589433	6.983000
2084.243750	7.240600
2090.048417	7.187700
2087.660700	7.365400
2093.004200	7.089100
2094.969600	6.979000
2092.166267	7.175100
2090.849600	7.279900
2088.654250	7.437700
2090.532683	7.336400
2098.513883	7.113200
2102.289900	6.920500
2097.741483	7.205600
2096.014967	7.314600
2103.648383	6.892700
2095.178667	7.379400
2099.539150	7.138600
2097.712700	7.255300
2097.806150	7.529200
2105.978800	7.109200
2107.653033	7.035500
2116.603400	6.484300
2104.462700	7.195900
2109.059867	6.927900
2106.957267	7.072200
2102.653683	7.326800
2100.316967	7.599300
2099.722267	7.847400
2110.268400	7.231000
2115.828533	6.928400
2107.224417	7.457400
2115.156800	6.964900
2102.276850	7.749100
2112.504850	7.310500
2113.370433	7.267100
2118.951250	6.920500
2112.023050	7.346800
2112.396500	7.331500
2117.282300	7.041700
2111.042017	7.659300
2110.671833	7.704200
2116.986733	7.346900
2120.557517	7.169700
2118.971117	7.313100
2112.344517	7.743600
2112.903167	7.751100
2121.956933	7.218200
2126.955267	6.918600
2124.533767	7.089600
2122.021483	7.296500
2111.882267	7.944600
2121.509667	7.436400
2120.797600	7.514800
2121.277383	7.515800
2127.532283	7.156100
2127.710350	7.166500
2128.317500	7.147900
2128.206983	7.257200
2126.436033	7.601000
2130.633683	7.365200
2127.553033	7.583900
2130.850567	7.425300
2135.476933	7.294100
2136.275083	7.273100
2136.885900	7.251400
2134.483867	7.410900
2137.570283	7.233800
2140.149583	7.084100
2133.813333	7.554500
2131.189850	7.756300
2136.674467	7.454100
2128.886500	7.948300
2135.088950	7.595800
2137.927683	7.456100
2132.760950	7.789600
2143.123333	7.184000
2138.967783	7.673600
2140.032483	7.712900
2138.203267	7.842000
2146.929367	7.336200
2140.889000	7.694500
2142.220683	7.649300
2145.512383	7.511600
2150.189367	7.343100
2142.286383	7.834400
2144.330683	7.714100
2140.764600	7.936900
2149.023917	7.458900
2153.957117	7.174800
2145.846750	7.688200
2153.400467	7.270200
2158.005417	7.343700
2153.810167	7.634100
2152.819717	7.710900
2153.169883	7.702700
2157.998933	7.418000
2158.244500	7.406800
2158.987783	7.375700
2163.487950	7.117300
2163.719717	7.302600
2163.329983	7.346900
2158.158250	7.673800
2154.299883	7.906400
2169.479217	7.223100
2173.077617	7.011000
2166.022600	7.416700
2172.705217	7.035300
2169.714600	7.279000
2173.392950	7.159600
2168.320617	7.469400
2168.055150	7.486900
2156.408850	8.195200
2160.615950	7.964200
2172.125400	7.289500
2170.910183	7.357400
2170.463483	7.387400
2162.856333	7.855400
2163.872317	7.870200
2171.440533	7.550600
2173.841717	7.430700
2178.818633	7.157900
2169.739983	7.721900
2177.260283	7.282700
2177.468233	7.287800
2174.215967	7.665900
2170.968117	7.886700
2176.413200	7.601800
2178.987817	7.452900
2164.827183	8.322800
2175.130750	7.730800
2177.315933	7.626800
2171.321883	8.011100
2177.659650	7.878700
2180.487500	7.859500
2182.275767	7.780800
2183.790050	7.694800
2183.522483	7.734200
2182.528633	7.811600
2185.684383	7.623500
2188.723600	7.453900
2190.718600	7.344100
2190.535883	7.354100
2190.753017	7.485000
2187.592133	7.887500
2199.902100	7.167400
2198.042250	7.295800
2194.958133	7.489700
2197.575750	7.353700
2191.410250	7.705300
2192.709350	7.722400
2195.725833	7.570700
2197.811000	7.464400
2196.794883	7.543700
2195.671233	7.621700
2203.718067	7.147200
2198.178067	7.501200
2202.710183	7.226600
2202.980950	7.507600
2203.288650	7.571500
2200.740517	7.752300
2208.644983	7.300700
2205.307533	7.522100
2206.754550	7.437700
2205.761833	7.496900
2201.296483	7.797500
2206.963367	7.761600
2203.471100	8.000200
2212.698250	7.485400
2216.189117	7.284600
2208.426867	7.863000
2206.539683	7.997600
2214.401017	7.557000
2213.023850	7.639000
2208.846417	7.952400
2210.730367	7.957200
2213.673750	7.835800
2204.212000	8.403400
2207.706950	8.207800
2213.074733	7.907900
2211.695833	7.997600
2214.590500	7.848100
2215.658800	7.800100
2222.720383	7.385000
2225.149117	7.246500
2228.093283	7.389500
2231.462717	7.254600
2221.990300	7.826200
2225.199150	7.646200
2228.039217	7.478400
2227.800067	7.514400
2221.849900	7.893100
2217.625850	8.153800
2221.072467	8.222400
2222.150917	8.237700
2223.948167	8.175900
2233.199250	7.633900
2230.561083	7.845500
2230.205200	7.842700
2221.338383	8.398700
2230.650567	7.850100
2224.225167	8.437800
2225.280050	8.488900
2225.582367	8.502900
2234.011400	8.010700
2231.663833	8.171600
2227.413350	8.465500
2233.445100	8.215300
2233.539217	8.349000
2237.717267	8.136600
2245.857367	7.648800
2243.746350	7.789600
2231.724500	8.651500
2245.825083	7.835000
2242.571717	8.025600
2240.179783	8.186900
2250.448200	7.703500
2249.432650	7.777300
2249.293317	7.822200
2248.625033	7.873700
2249.003200	7.862800
2246.123950	8.069800
2253.621033	7.631600
2251.702400	7.758400
2243.122967	8.270700
2249.960517	7.848000
2255.028483	7.530800
2248.357083	7.911200
2242.759450	8.260900
2251.962267	7.706700
2254.846567	7.660500
2253.356250	7.863700
2255.328000	7.766800
2253.381467	7.907100
2251.120617	8.068800
2252.772283	7.983500
2252.342600	8.092000
2255.988900	8.042500
2254.653117	8.156700
2258.282567	7.980300
2249.673350	8.528200
2258.389017	8.038800
2249.763417	8.577900
2256.327317	8.236500
2259.656350	8.063200
2265.848783	7.821800
2259.094817	8.294700
2260.854183	8.256500
2269.374783	7.766000
2271.531883	7.679000
2262.946317	8.204100
2267.841117	8.098800
2270.973150	7.923400
2271.942383	7.890500
2272.926617	7.846800
2274.178750	7.909300
2271.965633	8.094200
2278.812567	7.725300
2273.683983	8.068700
2276.964383	7.889000
2279.355800	7.749100
2284.331650	7.454800
2280.748800	7.656100
2287.938667	7.217700
2279.652900	7.733800
2280.912333	7.700300
2284.660367	7.552500
2277.222367	8.026800
2280.045600	7.893400
2281.900483	7.824500
2284.401033	7.753700
2280.752817	8.019300
2284.525133	7.827800
2283.670500	7.908400
2280.131900	8.210800
2285.283767	7.960200
2290.537700	7.675000
2290.415750	7.734700
2288.962183	7.845500
2285.978433	8.057900
2292.106150	7.746400
2289.187533	7.921400
2289.788483	7.895900
2300.544867	7.275300
2296.956150	7.758100
2297.344700	7.860700
2288.157333	8.441300
2296.932617	7.935000
2300.236117	7.745400
2297.033717	7.949400
2289.707300	8.632300
2299.901500	8.030200
2302.290317	7.889100
2307.151817	7.608300
2303.878050	7.789600
2307.959850	7.533400
2305.170067	7.711800
2300.670633	8.041100
2308.895967	7.591800
2305.574267	7.828200
2300.464117	8.144100
2303.303483	8.048600
2306.854367	7.885500
2310.580517	7.694100
2309.761833	7.745900
2318.178817	7.449900
2314.022450	7.709800
2312.243950	7.821400
2310.749483	7.928000
2307.133867	8.283300
2312.728333	8.017700
2315.690283	7.860500
2312.869867	8.038800
2317.791517	7.764000
2318.834800	7.715800
2318.746767	7.874400
2311.135100	8.403100
2310.576850	8.480200
2319.492450	7.960900
2322.131183	7.825400
2318.929867	8.013900
2324.869417	7.698600
2320.574167	8.024400
2318.026033	8.179100
2317.486733	8.248400
2324.924617	7.816500
2317.073167	8.319000
2322.635383	7.988900
2311.630183	8.698700
2315.384850	8.525500
2328.228100	8.092000
2332.128817	7.875000
2334.297217	7.774500
2327.605017	8.167800
2326.332600	8.405200
2331.799167	8.125500
2327.809017	8.400900
2327.335950	8.465200
2336.044267	7.994100
2333.974067	8.125500
2341.100650	7.716400
2331.270150	8.296600
2334.650333	8.335700
2339.642700	8.162800
2329.602867	8.807400
2331.509617	8.702400
2347.673900	7.768600
2336.972800	8.423800
2340.677983	8.197400
2344.873800	7.950400
2343.391083	8.181200
2342.634883	8.405600
2346.852433	8.178800
2351.650283	7.886900
2348.164183	8.102000
2353.078917	7.806000
2345.619167	8.255400
2339.211200	8.629600
2339.221400	8.679100
2349.966267	8.124000
2351.353367	8.061000
2350.742183	8.302100
2352.432417	8.244900
2350.125067	8.491200
2352.063283	8.446100
2347.708650	8.742400
2350.390783	8.588900
2348.954900	8.694400
2352.930617	8.461500
2359.331683	8.164100
2355.734483	8.411300
2363.504733	7.951100
2367.523533	7.714400
2364.169100	7.921000
2356.428533	8.407400
2355.903700	8.441500
2367.171133	7.781000
2358.527583	8.481200
2356.874667	8.716200
2365.092467	8.251800
2365.140017	8.284200
2371.479633	7.918100
2372.042600	7.893400
2361.940467	8.498700
2365.818717	8.284500
2367.885150	8.232100
2365.159467	8.642700
2372.482767	8.235900
2375.477933	8.082500
2366.183950	8.639500
2371.718133	8.324600
2374.460200	8.172400
2368.034100	8.552500
2374.442667	8.156700
2376.247783	8.318900
2380.139033	8.174900
2369.469717	8.868300
2375.127417	8.561700
2375.282900	8.545300
2379.830833	8.269400
2368.680200	8.936500
2371.599933	8.768600
2374.432233	8.621000
2375.918200	8.537800
2380.396133	8.534600
2383.295683	8.473100
2380.490317	8.653200
2388.201100	8.222500
2386.928250	8.306200
2393.374217	7.935600
2387.599450	8.365600
2384.700267	8.685900
2386.767000	8.582200
2383.567667	8.838000
2387.118217	8.635500
2396.130150	8.122900
2388.156883	8.608700
2383.633500	8.915500
2382.421383	9.005000
2392.197717	8.450100
2390.996267	8.562300
2394.433367	8.649600
2394.172400	8.681200
2404.614283	8.132000
2398.577250	8.501800
2403.797333	8.210300
2400.117000	8.444200
2403.179583	8.240600
2397.120600	8.632300
2399.589717	8.486700
2402.896817	8.277300
2400.235150	8.659000
2407.228133	8.356400
2408.356833	8.291300
2408.017267	8.316900
2404.924683	8.502200
2397.920717	8.917800
2406.604400	8.499700
2412.325733	8.308100
2408.088233	8.589500
2411.323400	8.423800
2409.288750	8.566300
2417.442717	8.090700
2415.580167	8.217000
2418.898083	8.008100
2417.567017	8.082300
2412.246267	8.407200
2410.686750	8.545300
2426.275183	7.888100
2428.555233	7.775300
2425.218933	7.973900
2423.178417	8.072400
2417.612467	8.401500
2410.444800	8.839600
2411.251950	8.828800
2415.082333	8.606300
2412.461167	9.009000
2425.180500	8.358400
2424.978133	8.386100
2426.534217	8.304600
2421.530967	8.630400
2428.557367	8.242500
2423.466283	8.561600
2428.218817	8.274000
2424.476683	8.591900
2416.689983	9.113000
2434.992217	8.075400
2438.689750	7.865800
2432.915917	8.240100
2432.870150	8.398600
2433.964533	8.357300
2425.071283	8.910200
2431.159750	8.573800
2434.497733	8.395700
2427.161250	8.873500
2428.402783	8.999900
2435.541217	8.614500
2430.842517	8.904300
2426.453717	9.177000
2437.887967	8.528700
2441.586883	8.303600
2447.725400	7.975600
2442.760233	8.271500
2439.926683	8.462300
2431.786133	8.962400
2433.357450	9.167200
2442.304683	8.761400
2452.448283	8.202200
2445.206150	8.678800
2443.022683	8.831600
2443.955733	8.804000
2443.826900	8.824600
2450.488367	8.446200
2445.675667	8.752500
2438.819883	9.171800
2448.875900	8.584000
2447.381567	8.682600
2440.703583	9.122900
2445.370483	8.853200
2448.348133	8.690300
2455.438267	8.282400
2457.807033	8.185400
2450.854567	9.011100
2453.666533	8.867600
2451.991483	9.006200
2450.922133	9.072800
2460.143067	8.542500
2456.062700	8.797300
2454.279600	8.911300
2462.432950	8.431600
2466.998433	8.462000
2470.431283	8.284700
2466.714667	8.520600
2465.037050	8.632300
2454.980667	9.233700
2464.259383	8.688500
2467.621333	8.495900
2455.946733	9.198200
2471.843167	8.551800
2470.626133	8.671700
2463.078333	9.144200
2470.254550	8.741500
2470.487800	8.813200
2474.180233	8.711600
2475.760050	8.638300
2471.583750	8.902900
2475.009567	8.704800
2465.899167	9.272100
2466.378100	9.271300
2470.793383	9.201500
2473.721950	9.046000
2471.962200	9.187600
2476.493117	8.962200
2473.834067	9.149400
2480.455000	8.751700
2478.389850	8.905600
2477.022667	8.988900
2474.042583	9.460400
2479.433433	9.187400
2473.989783	9.530900
2483.551883	8.955500
2487.391950	8.752900
2478.036183	9.317000
2487.571733	8.758100
2480.877517	9.162300
2488.855633	8.842100
2486.745983	8.976200
2483.827950	9.187600
2498.809850	8.296600
2498.202017	8.435400
2492.855850	8.820400
2495.398117	8.697300
2494.735200	8.749000
2496.350650	8.660500
2494.005183	8.821100
2495.383433	8.808200
2501.349883	8.630300
2500.684417	8.688600
2505.305717	8.408700
2496.683950	8.916400
2498.565883	8.829500
2488.698750	9.435100
2499.045483	8.841500
2500.097633	8.795300
2502.941250	8.787700
2501.502350	8.893600
2495.314050	9.304900
2495.791883	9.298400
2502.980317	9.039600
2506.341567	8.878800
2497.343333	9.429500
2510.207683	8.670500
2507.474267	8.866500
2506.840033	8.909900
2512.985700	8.685400
2511.219917	8.867400
2505.072283	9.266900
2509.836833	8.961500
2511.564350	8.899000
2512.656600	8.856400
2511.253733	9.093800
2511.532050	9.226300
2507.498117	9.467700
2514.277200	9.098800
2514.764967	9.084900
2519.407467	8.815200
2517.699200	8.926900
2517.797333	8.924900
2512.297550	9.313300
2523.551433	8.941700
2528.953383	8.624000
2523.805500	8.946400
2523.708100	8.980000
2527.089650	8.782600
2521.087233	9.173900
2523.868300	9.024100
2527.323600	8.838100
2529.474617	8.988900
2529.192583	9.081800
2526.716483	9.245900
2529.333100	9.082600
2537.058667	8.642700
2537.851117	8.570400
2523.177750	9.593800
2531.973817	9.162300
2531.397267	9.253800
2527.021583	9.548000
2529.550600	9.418300
2527.630850	9.563200
2533.069933	9.387500
2542.738500	8.884000
2537.042133	9.232400
2534.951567	9.388200
2538.684317	9.199500
2543.176617	8.988300
2542.875167	9.020400
2547.770267	8.755800
2545.226217	8.917200
2547.662550	8.792500
2547.587083	8.797100
2537.082333	9.447500
2538.612350	9.376300
2541.914983	9.205700
2538.686133	9.414200
2543.260800	9.446800
2537.912100	9.873400
2540.789583	9.747500
2546.315950	9.421000
2543.235500	9.629500
2553.049433	9.055700
2554.730667	8.967900
2553.955217	9.024300
2548.131217	9.372900
2546.640100	9.457000
2554.695350	9.066700
2554.915850	9.327700
2556.121433	9.296600
2550.979183	9.599600
2554.560550	9.422800
2554.912117	9.414900
2555.715850	9.395800
2555.108417	9.632700
2553.982783	9.742700
2566.081283	9.036800
2566.297550	9.026800
2562.400383	9.263000
2562.912350	9.234400
2572.336717	8.655600
2562.012433	9.280400
2562.838017	9.249300
2564.833250	9.144400
2565.166633	9.419000
2573.547167	9.005400
2574.467567	8.972100
2567.925300	9.380800
2572.158000	9.143800
2567.264017	9.458100
2574.158933	9.125300
2571.943617	9.289800
2575.714367	9.077700
2577.649617	8.977800
2578.731317	9.009000
2580.650750	9.017800
2581.332433	8.987000
2581.544533	8.984000
2573.865867	9.446100
2578.576983	9.175100
2579.225733	9.196100
2574.260283	9.656600
2577.580117	9.487500
2576.610567	9.576900
2583.779800	9.172000
2580.719833	9.328100
2578.603483	9.467300
2582.921150	9.223000
2576.987950	9.598300
2577.558067	9.575700
2575.582750	9.707500
2584.523000	9.432100
2581.368717	9.717000
2587.393433	9.400700
2596.545833	8.859800
2581.176917	9.805500
2586.698317	9.493500
2592.273050	9.488200
2601.887583	8.939300
2601.854733	8.955200
2594.892050	9.382000
2593.992750	9.568900
2598.596517	9.345000
2596.964583	9.454400
2600.836483	9.232700
2596.308767	9.517200
2599.469183	9.333500
2596.403583	9.603200
2605.712533	9.195200
2602.205583	9.416000
2606.536983	9.180800
2605.177400	9.284500
2607.361733	9.146300
2602.415533	9.430400
2606.095033	9.236600
2608.584600	9.078100
2607.307183	9.439400
2603.844483	9.704000
2604.066367	9.736800
2609.954600	9.407200
2618.764100	8.896000
2616.744633	9.019700
2613.627450	9.209200
2610.615467	9.396900
2607.483467	9.916200
2613.218033	9.620600
2613.014150	9.655000
2617.290133	9.386300
2623.675217	9.145500
2620.513033	9.377000
2618.447117	9.537900
2621.758450	9.358000
2620.545683	9.429500
2627.118400	9.015400
2626.693867	9.150000
2620.620150	9.632500
2626.672867	9.284700
2635.525983	8.754200
2623.752750	9.475000
2623.878067	9.469200
2623.325350	9.516700
2624.572267	9.467400
2627.105533	9.410900
2639.048700	8.922700
2633.986100	9.242800
2633.118233	9.302300
2635.139350	9.183700
2630.947667	9.436200
2627.104717	9.650700
2628.326500	9.593800
2631.601850	9.425800
2636.335633	9.398000
2638.590217	9.348000
2641.984667	9.162000
2633.010500	9.706000
2635.988250	9.573700
2639.692083	9.367100
2634.912200	9.677800
2637.367683	9.529700
2637.681567	9.530700
2638.182883	9.521000
2636.196050	9.811300
2647.115967	9.386400
2652.154133	9.103700
2647.706100	9.369400
2652.861700	9.093100
2652.847500	9.234100
2654.210600	9.167200
2653.731017	9.186900
2641.556317	9.996000
2651.116850	9.491800
2650.917367	9.548400
2653.191733	9.409100
2651.759050	9.500500
2650.627700	9.616000
2659.934317	9.077700
2655.327983	9.380900
2652.236950	9.576400
2655.023467	9.504900
2654.771450	9.566500
2659.740250	9.287500
2666.750383	8.867000
2658.942683	9.307100
2661.313283	9.197600
2655.948800	9.541000
2657.223750	9.483700
2666.756217	9.193500
2670.085617	9.215100
2672.735117	9.069300
2663.733100	9.600100
2672.190050	9.079000
2665.462950	9.493000
2665.049317	9.580200
2673.546600	9.268000
2670.196983	9.478700
2674.368317	9.243600
2674.361483	9.245000
2677.512167	9.211800
2672.855383	9.507800
2671.451700	9.608500
2673.229317	9.508200
2679.023083	9.162500
2676.825867	9.282600
2672.939083	9.519500
2670.244250	9.700000
2679.290250	9.483100
2688.251233	9.009200
2687.053783	9.102500
2684.279667	9.278400
2679.658700	9.563200
2680.961467	9.508800
2684.946683	9.287900
2681.645400	9.502300
2686.619917	9.459600
2685.494017	9.628800
2689.664600	9.380500
2684.082867	9.714000
2683.693417	9.742200
2689.828600	9.396700
2692.623933	9.302000
2692.692433	9.341900
2693.580000	9.285100
2691.780983	9.421100
2689.445867	9.645300
2701.059567	9.056400
2701.963117	9.026400
2692.900917	9.564600
2698.241883	9.270500
2707.909250	8.863000
2699.745783	9.351500
2695.754617	9.610500
2698.547167	9.457200
2693.369883	9.886100
2690.804383	10.121000
2698.050800	9.745600
2699.747050	9.650500
2696.190300	9.883600
2703.646233	9.460400
2693.969667	10.077300
2691.292583	10.231100
2705.724733	9.386600
2711.236033	9.053000
2697.531167	10.044000
2701.033583	10.049000
2701.698567	10.044900
2712.475383	9.401300
2704.321100	9.898300
2707.997133	9.678200
2708.929567	9.631200
2710.125467	9.578100
2717.821250	9.164800
2705.542833	10.006400
2709.618100	9.823600
2715.510350	9.523000
2715.569067	9.540300
2715.565917	9.567000
2714.705100	9.647200
2716.418183	9.621200
2712.754350	9.870100
2709.352467	10.110300
2706.035000	10.351000
2708.489967	10.281300
2719.672067	9.646800
2725.869217	9.529200
2723.447550	9.656500
2721.108000	9.828100
2723.533933	9.686900
2724.328017	9.726000
2721.109417	9.951900
2723.442617	9.833100
2723.979283	9.831200
2724.106117	9.836400
2723.540733	9.907400
2723.201467	9.960000
2727.124667	9.743700
2726.048817	9.856800
2717.009017	10.412100
2736.837217	9.597300
2732.776350	9.923200
2735.165567	9.800400
2733.473050	9.912700
2729.000550	10.285900
2736.058967	9.979200
2740.895783	9.716900
2740.305650	9.767500
2741.088267	9.728100
2742.233367	9.813000
2745.735750	9.646000
2743.864800	9.756400
2748.719850	9.448600
2743.665317	9.777300
2744.836850	9.724600
2736.521450	10.326400
2750.268700	9.528100
2745.474950	9.827500
2743.108733	9.983000
2741.915633	10.133600
2746.756783	9.884600
2745.350817	10.003500
2746.955900	9.923800
2756.059583	9.429500
2746.724250	9.989800
2746.333050	10.052200
2747.212583	10.017500
2756.739983	9.648200
2754.709467	9.939300
2758.503317	9.735300
2760.647017	9.617700
2762.066750	9.625600
2751.109133	10.385900
2755.097667	10.163100
2759.281317	9.933600
2764.209267	9.639300
2758.530383	9.993500
2756.010333	10.173500
2764.681550	9.683200
2762.635233	9.824600
2760.526533	9.956300
2760.335850	9.990700
2773.405817	9.558000
2767.060767	9.983400
2767.682633	9.949100
2773.112600	9.657700
2778.296050	9.511300
2776.719750	9.630100
2774.247200	9.794800
2769.513133	10.090400
2771.710850	10.051600
2771.844633	10.152800
2780.984367	9.607800
2779.137517	9.745500
2770.786333	10.263500
2769.631183	10.352600
2775.365233	10.061000
2781.494317	9.883200
2780.904683	9.940700
2781.294817	9.918600
2775.464750	10.288900
2774.541500	10.332400
2780.073633	10.027400
2774.662900	10.357300
2778.281250	10.203100
2788.304350	9.902800
2783.476433	10.214000
2776.513767	10.634400
2781.436233	10.337900
2789.212033	9.915500
2781.323283	10.373600
2788.896900	10.086100
2795.518083	9.754100
2783.409317	10.539900
2789.301233	10.211300
2788.679917	10.247700
2787.450550	10.326700
2796.175800	9.838600
2792.096367	10.068300
2792.498167	10.158600
2792.765517	10.268700
2801.830283	9.775700
2798.232783	9.971300
2794.310917	10.197900
2799.442317	9.892500
2798.074100	10.020700
2801.231000	9.906400
2797.558867	10.145100
2797.709250	10.152700
2802.025883	9.915200
2810.232333	9.493100
2796.833900	10.301500
2789.020667	10.800900
2796.805000	10.366900
2796.578983	10.419500
2800.816467	10.197900
2798.040350	10.393900
2798.811700	10.365700
2798.190850	10.687000
2810.768067	10.002300
2817.011550	9.652000
2808.104233	10.191800
2815.719733	9.794000
2803.836217	10.519200
2817.714167	9.717300
2808.369967	10.289100
2802.733067	10.777500
2807.576017	10.538400
2809.813217	10.470300
2816.213517	10.137600
2818.855283	10.046000
2823.376633	9.842900
2820.014633	10.066400
2818.623883	10.162400
2821.108233	10.030700
2833.350600	9.322300
2818.032183	10.261400
2818.397917	10.333500
2819.592150	10.317700
2825.916800	9.981100
2819.169167	10.419900
2816.933733	10.613000
2823.962617	10.217100
2823.188367	10.300800
2832.453883	9.756800
2824.434250	10.528900
2830.906817	10.236600
2829.276633	10.352000
2832.880317	10.177800
2828.108750	10.484800
2835.160650	10.042900
2830.280550	10.323400
2830.926900	10.297300
2836.633850	10.134100
2840.295917	9.920100
2836.361833	10.201400
2839.473117	10.036200
2836.313633	10.290500
2834.780533	10.461200
2842.539567	10.026600
2844.656350	9.933700
2840.923900	10.201300
2838.598200	10.374100
2838.159417	10.531800
2844.739700	10.276900
2845.580183	10.283000
2843.135450	10.467400
2842.214683	10.537400
2846.806550	10.296700
2850.649017	10.091100
2849.220083	10.198400
2857.924200	9.690700
2861.308300	9.773200
2861.153317	9.833400
2858.792717	10.003800
2863.035967	9.753900
2860.847100	9.891100
2854.955817	10.228800
2855.103467	10.239300
2858.302100	10.053700
2841.446417	11.231700
2851.048683	10.708700
2854.053150	10.591600
2856.102850	10.499500
2861.105033	10.331600
2864.676817	10.165800
2855.565867	10.725000
2860.382433	10.462100
2863.729467	10.298100
2864.512850	10.277500
2876.205783	9.650600
2860.875400	10.639000
2861.313733	10.656800
2860.077167	10.745700
2864.286300	10.516600
2863.167117	10.625400
2862.521083	10.696700
2869.441667	10.305900
2875.157250	9.991600
2869.346333	10.513700
2867.769683	10.661000
2869.555517	10.602000
2869.465350	10.615600
2875.835600	10.275700
2872.742900	10.469800
2867.584983	10.798400
2869.775200	10.693900
2870.206433	11.007200
2883.665550	10.245400
2876.426017	10.739100
2882.429450	10.408000
2879.173350	10.654600
2882.492233	10.492100
2887.644933	10.251200
2883.980517	10.459500
2878.764633	10.805300
2889.871333	10.175900
2884.255900	10.616800
2884.363417	10.756800
2881.045133	10.988000
2887.964150	10.588600
2886.571217	10.674300
2883.368067	10.886100
2892.253033	10.373600
2889.385167	10.558200
2897.447750	10.165300
2899.764533	10.253600
2901.481233	10.169000
2897.473350	10.424800
2903.612567	10.066800
2891.818483	10.760600
2888.734933	10.950500
2893.128317	10.721400
2904.943833	10.043600
2882.609967	11.497800
2890.726767	11.037600
2899.458317	10.564800
2901.458267	10.454700
2904.290100	10.447000
2909.540233	10.187900
2904.171100	10.516000
2900.997467	10.750500
2899.492617	10.869000
2905.432333	10.519400
2904.367967	10.794600
2903.933433	10.912100
2906.395450	10.793200
2911.140067	10.517100
2912.269733	10.483700
2918.175517	10.160700
2914.728400	10.376200
2909.873883	10.656200
2910.873800	10.671400
2914.511383	10.578200
2917.141733	10.462400
2922.086167	10.183500
2911.259267	10.876200
2912.411483	10.853300
2915.868600	10.666600
2919.969850	10.459600
2923.685100	10.264300
2937.356550	9.740500
2930.848550	10.171000
2921.381917	10.744500
2925.829867	10.502700
2920.380167	10.862400
2933.548300	10.098400
2917.752983	11.063300
2922.602183	10.774400
2927.236433	10.787600
2935.247400	10.360000
2926.451467	10.947900
2933.338133	10.548800
2933.872433	10.518800
2933.788933	10.545800
2931.171467	10.908600
2929.935067	10.984500
2929.583183	11.036900
2925.815583	11.300000
2932.089183	10.984400
2936.776250	10.846900
2935.873717	10.929600
2937.892717	10.821000
2939.149250	10.752700
2926.996550	11.537200
2932.901583	11.194400
2943.994883	10.545800
2943.096683	10.592300
2944.337067	10.869600
2941.565133	11.080400
2960.677800	9.958600
2945.797400	10.842400
2956.692350	10.356100
2950.843650	10.736200
2943.176317	11.214300
2950.451500	10.788700
2949.446583	11.003000
2945.849617	11.270100
2951.665367	11.000400
2956.151900	10.740700
2961.276800	10.455400
2955.832700	10.771000
2954.831000	10.855300
2953.064883	10.965500
2956.411783	10.766600
2953.838450	10.916200
2951.615767	11.121600
2965.481150	10.564300
2956.110083	11.150600
2955.842017	11.192400
2970.032633	10.349600
2960.107883	10.965200
2970.154100	10.371700
2957.024900	11.159800
2964.532017	10.732500
2960.731567	11.259300
2967.546650	10.900300
2967.263533	10.924700
2969.150383	10.829600
2975.063450	10.489000
2973.190583	10.613300
2969.891783	10.836200
2977.787033	10.382000
2964.183667	11.435700
2971.223400	11.106700
2971.446250	11.128900
2973.969150	11.006500
2968.256950	11.319100
2966.969617	11.420400
2969.624183	11.296700
2971.101133	11.215400
2972.035433	11.148500
2966.141817	11.518200
2972.499100	11.564200
2983.490600	10.903000
2976.684967	11.328900
2982.257000	11.009200
2978.236733	11.316200
2979.373933	11.368700
2993.272367	10.561500
2988.577533	10.850900
2987.755217	10.916700
2989.547883	10.959200
2990.556350	10.927600
2985.595833	11.230700
2981.651633	11.498300
2989.874283	11.015600
2995.371650	10.702600
2985.372067	11.304600
2988.197750	11.152000
2980.156917	11.631900
2982.102400	11.539600
2986.971683	11.359700
2992.278050	11.107900
2986.679167	11.493900
2986.400533	11.533100
2987.113617	11.550000
2993.539150	11.190100
2992.630000	11.419600
2998.042467	11.178000
3002.554267	10.938600
3006.913950	10.690000
3005.953583	10.758200
3005.078633	10.850300
3008.146133	10.683800
3005.667100	10.835800
3017.313400	10.457500
3007.320900	11.075800
3005.903133	11.186600
3010.534417	10.929600
3005.220717	11.306400
3010.238983	11.133500
3017.937317	10.700400
3014.649417	10.919100
3012.032750	11.076400
3010.917117	11.136600
3013.781917	10.986900
3021.412267	10.624800
3026.846900	10.303000
3021.725967	10.660800
3019.642950	10.802500
3014.873567	11.110500
3015.036900	11.122600
3013.269333	11.265200
3011.951883	11.350400
3021.334733	10.843400
3016.872600	11.145400
3031.535317	10.629900
3020.454750	11.327500
3030.632217	10.752600
3030.212017	10.810200
3022.542600	11.454100
3028.560317	11.114100
3027.190217	11.211300
3021.135567	11.587800
3025.592933	11.355500
3031.573983	11.144600
3027.474150	11.424700
3025.623417	11.573700
3029.863733	11.325200
3029.618383	11.357000
3035.581517	11.044200
3032.371983	11.215700
3038.831183	10.851200
3036.685317	10.996200
3033.555883	11.204600
3038.265733	11.247500
3031.543600	11.687500
3031.005667	11.718900
3040.097883	11.185100
3033.660733	11.592500
3037.693750	11.357200
3045.857217	11.090400
3040.618483	11.449100
3048.577900	10.985500
3047.583100	11.065300
3040.273600	11.616700
3046.499133	11.294600
3060.084683	10.517000
3055.809350	10.750600
3049.913983	11.094800
3043.370183	11.491100
3045.505967	11.496000
3049.789067	11.361000
3046.677500	11.594200
3054.097067	11.170200
3061.034550	10.772200
3059.018867	10.904700
3060.073450	10.841500
3045.814667	11.700900
3041.707233	11.973800
3059.280033	10.950500
3058.757167	11.036100
3052.688717	11.714700
3062.725717	11.152500
3054.319733	11.668100
3057.088600	11.526700
3055.668933	11.612000
3062.487500	11.224900
3059.901167	11.608800
3069.237733	11.052200
3060.368267	11.577000
3066.363933	11.218400
3066.316317	11.371500
3066.652867	11.390400
3064.622717	11.523300
3068.977233	11.264600
3070.581483	11.195900
3069.143167	11.292300
3065.815567	11.569500
3075.412600	11.059600
3076.195233	11.039300
3075.126833	11.111000
3074.446483	11.176100
3078.050150	10.959700
3063.572183	11.824700
3073.322367	11.261400
3082.028233	10.879400
3078.421317	11.315700
3077.869200	11.376400
3074.442567	11.602800
3078.724133	11.351600
3078.198683	11.430800
3079.328333	11.387600
3080.234333	11.348600
3084.146067	11.119200
3082.270450	11.292100
3080.234633	11.439800
3071.976433	11.947100
3082.164567	11.349900
3081.118967	11.803500
3090.418750	11.322400
3100.349050	10.759600
3088.074050	11.510200
3093.410450	11.212000
3087.102667	11.593800
3086.663333	11.845700
3089.848733	11.670500
3095.826783	11.317700
3090.102683	11.687900
3106.500467	10.817700
3101.423933	11.134100
3092.143717	11.697000
3089.892633	11.869100
3101.443850	11.252800
3102.265533	11.316200
3093.733617	11.852700
3093.554283	11.880500
3101.455683	11.468900
3110.467017	11.054100
3107.976350	11.218000
3106.376300	11.334100
3110.896700	11.076400
3109.081783	11.192300
3106.864683	11.336900
3100.452000	11.752600
3108.316117	11.276700
3107.881533	11.306000
3100.333767	11.761800
3107.574800	11.454700
3110.080633	11.349200
3117.894267	10.929600
3112.145150	11.281900
3103.449867	11.842200
3110.685333	11.419100
3113.017550	11.439100
3109.953367	11.721600
3115.596950	11.466100
3113.622700	11.606500
3116.467633	11.458100
3119.253283	11.305400
3115.277317	11.587800
3113.562717	11.718300
3116.686417	11.559000
3117.543000	11.536900
3122.111200	11.353900
3120.102550	11.747800
3120.200067	11.789700
3122.666483	11.665100
3120.528183	11.817200
3128.690167	11.366100
3121.347967	11.829300
3130.200567	11.283600
3122.051667	11.768100
3134.267533	11.054600
3127.491217	11.471100
3121.886383	11.953700
3121.729817	12.037800
3121.512833	12.108500
3135.221633	11.313500
3133.414200	11.464600
3129.290733	11.729600
3135.382550	11.412100
3132.121450	11.628100
3128.271267	12.082800
3133.652683	11.894600
3132.968800	11.981800
3131.399300	12.117400
3136.301817	11.863200
3133.749367	12.029700
3139.906133	11.768000
3148.835467	11.331300
3139.585300	11.898700
3146.062950	11.543200
3145.815583	11.593100
3143.264900	11.769400
3147.884383	11.555000
3144.560467	11.937600
3143.177433	12.040100
3142.943500	12.074800
3145.016300	11.968900
3149.982433	11.742200
3149.187217	11.801700
3145.189067	12.071700
3150.238550	11.786500
3146.231000	12.056200
3150.406150	11.822500
3154.608133	11.582900
3143.841700	12.235900
3157.946450	11.737300
3163.527183	11.421500
3153.062600	12.049900
3150.083167	12.248700
3153.771733	12.150800
3155.589950	12.133300
3166.897567	11.506500
3166.230733	11.557100
3162.952283	11.797400
3167.656833	11.531000
3170.934633	11.384600
3167.473950	11.793700
3159.773200	12.292600
3159.504367	12.357300
3172.328150	11.612500
3174.373850	11.459800
3172.659800	11.560600
3170.027017	11.701500
3166.322050	11.931400
3163.345517	12.107400
3170.963850	11.688100
3174.128200	11.825800
3176.724167	11.717100
3174.068917	11.875500
3170.447967	12.127800
3171.789550	12.071200
3170.252300	12.168700
3174.083300	11.958700
3172.801383	12.069500
3182.385967	11.594400
3189.460917	11.256000
3183.845583	11.617400
3173.905900	12.250600
3182.744650	11.747800
3182.043317	11.819100
3173.722467	12.346800
3179.470300	12.003700
3178.130117	12.236400
3172.040117	12.775200
3182.427600	12.189700
3186.825050	11.965000
3190.666383	11.819000
3181.309300	12.516400
3180.329850	12.609400
3186.544467	12.259200
3185.770900	12.355300
3198.954250	11.730700
3194.579900	12.017500
3194.914350	11.998300
3191.951733	12.194000
3190.963717	12.278400
3190.331400	12.326800
3193.789200	12.151900
3197.624017	11.933400
3194.471683	12.393200
3210.545633	11.512100
3199.779850	12.197200
3199.521533	12.222800
3204.227000	11.979400
3202.549417	12.077400
3203.017550	12.082000
3199.766633	12.294800
3202.262717	12.154500
3205.553717	11.966400
3209.167633	12.139400
3207.349150	12.292000
3213.313867	11.951700
3207.727600	12.296800
3210.046200	12.253900
3204.210067	12.712200
3211.766633	12.290300
3212.184867	12.270900
3211.653067	12.301800
3208.673867	12.501600
3217.896083	11.986400
3212.877683	12.477800
3215.503433	12.376400
3220.142567	12.173700
3218.719783	12.253700
3221.802317	12.100500
3216.478250	12.412900
3218.967850	12.280300
3218.436100	12.305200
3227.682983	11.954300
3219.164983	12.522800
3227.555767	12.048300
3227.210800	12.084700
3221.827100	12.416500
3220.201333	12.556100
3224.055517	12.344700
3218.372300	12.694000
3235.778817	11.856000
3230.874683	12.293900
3236.431167	11.974800
3233.204950	12.161500
3235.827300	12.005200
3234.064500	12.117400
3229.891283	12.404900
3233.446700	12.200500
3236.830600	12.032800
3239.022750	12.011200
3244.069917	11.740500
3248.024800	11.522800
3242.330900	11.860900
3239.741150	12.049600
3246.781100	11.647300
3243.236467	11.871600
3244.598300	11.796700
3248.338150	11.935600
3246.648533	12.068600
3248.272500	11.992600
3237.337283	12.652700
3253.991633	11.823800
3246.206367	12.361500
3260.625467	11.526000
3245.912050	12.415000
3244.708733	12.525500
3251.999283	12.111800
3256.317517	12.036300
3247.293367	12.657300
3247.029583	12.707600
3250.135267	12.542400
3253.828850	12.366700
3252.503533	12.423500
3251.846700	12.485800
3250.549183	12.569300
3250.061717	12.728100
3254.057733	12.740300
3265.424600	12.092500
3262.481633	12.282800
3264.945700	12.145000
3274.207683	11.602100
3260.440350	12.499000
3269.124067	12.124800
3272.887917	11.940600
3263.755483	12.475700
3267.664633	12.282800
3264.746967	12.503100
3266.413133	12.417800
3262.824733	12.617900
3265.986117	12.449700
3272.401600	12.377200
3271.003400	12.491800
3272.233850	12.439000
3284.132417	11.739000
3268.824550	12.814300
3272.132750	12.657100
3272.525467	12.630900
3275.262683	12.480800
3274.967433	12.644300
3276.372900	12.605200
3277.709883	12.553400
3273.446817	12.824100
3279.315133	12.506300
3279.099383	12.534500
3278.477767	12.573000
3273.569750	12.868000
3279.010050	12.533800
3280.377900	12.470500
3277.196983	12.760100
3283.688633	12.501500
3285.777467	12.406800
3290.786617	12.128100
3291.936933	12.068600
3284.665767	12.521100
3282.604567	12.708000
3283.156583	12.892400
3284.591850	12.850000
3297.748650	12.119500
3296.549250	12.202600
3296.777433	12.206600
3293.171367	12.419100
3295.676767	12.421200
3293.666917	12.553200
3296.715067	12.429600
3301.674267	12.156300
3298.095000	12.489100
3295.161667	12.743100
3307.494750	12.094000
3305.068017	12.197100
3307.856333	12.061700
3309.284317	11.975700
3297.423117	12.729000
3303.743833	12.422600
3304.840350	12.387700
3302.807733	12.523400
3304.855350	12.452200
3306.583000	12.416500
3312.636750	12.075100
3316.309167	11.854500
3308.875467	12.349200
3308.621233	12.523400
3304.396417	12.813300
3305.663267	12.775800
3302.641233	13.007300
3310.946183	12.536300
3310.517967	12.570900
3316.069583	12.269900
3315.300150	12.335800
3312.183383	12.763700
3319.706217	12.474900
3317.561033	12.624800
3315.199100	12.771400
3309.703367	13.101000
3318.829900	12.578200
3319.916817	12.556800
3320.161150	12.558100
3325.420083	12.404300
3330.418800	12.289600
3328.586083	12.443900
3330.269467	12.354900
3321.708883	12.895700
3328.584350	12.575800
3331.732717	12.429600
3326.675583	12.778700
3331.206050	12.514300
3333.216283	12.445700
3337.929250	12.193600
3335.960750	12.418600
3338.818067	12.274500
3341.568483	12.132200
3341.144883	12.173000
3341.955417	12.125400
3337.108967	12.427500
3334.227133	12.641000
3334.575100	12.636400
3336.300917	12.804300
3335.420517	12.959400
3344.133700	12.485800
3340.337200	12.735100
3353.041733	11.989100
3344.679650	12.512500
3337.335367	12.976500
3344.000250	12.609100
3342.325233	12.880700
3339.425917	13.079400
3350.798217	12.419100
3353.524367	12.287400
3358.434800	12.052000
3357.161150	12.247600
3359.445083	12.139400
3359.603233	12.143300
3355.773883	12.394400
3351.877483	12.791000
3360.304250	12.354100
3368.365517	11.896200
3369.666633	11.840300
3365.752050	12.085600
3367.925083	11.968100
3354.506850	12.798100
3362.688200	12.324700
3356.551550	12.708700
3347.125617	13.301100
3365.365250	12.479500
3364.719283	12.689000
3370.195633	12.396800
3363.048150	12.823000
3372.774167	12.298500
3372.471900	12.326500
3375.988900	12.140800
3376.820200	12.107200
3368.810633	12.891200
3367.087917	13.008300
3377.688733	12.433100
3375.812767	12.562500
3372.705750	12.866500
3376.680600	12.740800
3376.657433	12.769100
3370.635167	13.139700
3378.649300	12.689500
3386.233433	12.412400
3382.046133	12.668300
3370.372250	13.385500
3378.972933	12.891200
3377.312033	13.001900
3377.559633	12.991700
3373.831033	13.247900
3377.282500	13.076500
3383.511300	12.727600
3384.596733	12.678500
3386.223717	12.819600
3390.778350	12.714400
3390.345267	12.762300
3390.000433	12.785600
3381.809500	13.277800
3388.123000	12.920500
3390.819533	12.972500
3389.666817	13.068900
3397.110783	12.653900
3392.299517	12.960900
3392.663433	12.981200
3395.165817	12.894300
3391.844833	13.097900
3395.243850	12.918700
3392.136433	13.127600
3395.570833	12.942500
3398.835950	12.787300
3402.827117	12.750900
3409.798883	12.364100
3402.470050	12.823900
3405.922533	12.629900
3401.493800	12.881800
3401.078767	12.942900
3402.699533	12.838700
3399.691750	13.038100
3408.896683	12.600800
3415.967917	12.208500
3406.187200	12.811900
3401.717433	13.089200
3410.451317	12.617100
3412.036600	12.529000
3406.039700	12.924400
3402.257033	13.152800
3408.440950	12.947800
3413.685683	12.653000
3412.074033	12.773600
3413.557767	12.711600
3419.846600	12.660400
3416.941567	12.935100
3411.896767	13.263600
3410.691850	13.346200
3415.094917	13.130700
3414.497150	13.183300
3418.860100	13.037200
3422.955583	12.939800
3415.553467	13.421700
3417.650700	13.321300
3426.237400	12.842200
3422.736333	13.060700
3424.526017	12.972300
3415.733017	13.511700
3434.579533	12.404600
3428.881067	13.018800
3427.984883	13.136000
3431.811633	12.923900
3422.918683	13.467500
3428.255583	13.195400
3431.909667	12.977700
3424.622667	13.461600
3440.571417	12.515400
3439.308733	12.937400
3438.454300	13.006600
3439.541567	12.959700
3433.773500	13.299100
3438.363133	13.157300
3439.758267	13.122000
3432.190283	13.601000
3432.804317	13.569000
3431.551483	13.659800
3442.632400	13.017100
3444.354333	13.026800
3440.913700	13.342300
3444.804267	13.132500
3434.552717	13.783500
3436.732233	13.676000
3440.624467	13.489800
3449.380683	13.005200
3447.965500	13.118800
3457.985933	12.668300
3462.123350	12.614800
3464.185933	12.485600
3451.781517	13.231800
3457.905467	12.879900
3464.016783	12.528200
3461.676033	12.673700
3455.844400	13.029700
3455.831017	13.059000
3455.980267	13.415700
3453.146833	13.587500
3462.300500	13.070200
3461.484600	13.130500
3461.091217	13.269600
3463.314933	13.205300
3470.523317	12.807300
3465.350867	13.117800
3463.047583	13.275500
3468.187867	12.967800
3463.015150	13.395400
3470.567467	13.059000
3471.015450	13.038100
3458.797817	13.818300
3460.067950	13.752100
3462.093583	13.660100
3462.999817	13.615800
3469.859783	13.234700
3470.049433	13.346300
3476.507650	13.182700
3474.069733	13.356800
3472.498017	13.460100
3475.955767	13.293300
3479.289167	13.241100
3478.263817	13.340700
3487.064267	12.822000
3483.048150	13.076800
3482.762567	13.082100
3487.525167	12.819900
3478.798283	13.574300
3486.296983	13.184900
3494.501133	12.724700
3483.086150	13.420600
3475.227100	13.911400
3483.650750	13.400200
3498.847267	12.496800
3490.837450	12.974500
3487.361150	13.314100
3481.145600	13.734700
3486.742517	13.448700
3485.269533	13.552700
3478.674750	13.996600
3494.175683	13.085600
3490.378150	13.344700
3493.327450	13.189900
3488.061650	13.512400
3494.090467	13.178700
3496.754683	13.078100
3492.556450	13.433200
3493.734867	13.412700
3494.088767	13.416300
3500.834217	13.046100
3498.468033	13.355600
3497.560967	13.434300
3504.867000	13.038100
3500.869667	13.287600
3501.438950	13.274800
3503.503283	13.155500
3503.965767	13.142400
3508.794833	12.870200
3505.874233	13.196000
3505.851350	13.273000
3502.504283	13.499600
3513.950400	12.827500
3505.415633	13.367000
3502.106883	13.607600
3497.502500	14.033200
3504.753983	13.686500
3510.692683	13.361000
3505.445533	13.712000
3504.980533	13.782800
3516.781067	13.108200
3512.685867	13.375500
3508.513733	13.629800
3510.500550	13.644400
3525.074933	12.988100
3519.083783	13.388000
3519.413400	13.396000
3517.164950	13.573900
3521.630583	13.359200
3519.242850	13.516900
3521.290617	13.412400
3516.038083	13.752200
3509.980200	14.132200
3517.415817	13.701900
3527.294167	13.124400
3530.248567	12.954900
3531.468517	13.243500
3526.317267	13.649100
3527.192483	13.631300
3525.468683	13.773800
3532.982900	13.352800
3529.856950	13.553200
3532.571400	13.402300
3534.861650	13.270900
3521.191450	14.449000
3533.589283	13.714700
3543.817700	13.171600
3541.824833	13.302800
3549.950367	12.948900
3539.166983	13.661900
3545.498750	13.319800
3545.634067	13.309500
3543.298967	13.524300
3545.214600	13.512100
3537.725333	13.974500
3532.791517	14.299200
3540.120933	13.910600
3542.556750	13.774000
3545.943217	13.591200
3551.155350	13.310200
3543.116167	13.795200
3548.006350	13.636000
3548.421067	13.641600
3554.395033	13.302200
3554.232200	13.318300
3550.783033	13.541600
3554.345900	13.345300
3553.205200	13.639000
3559.769967	13.275600
3554.015333	13.653500
3547.990300	14.026900
3553.402933	13.858100
3554.940383	13.824800
3556.564150	13.756000
3562.483200	13.429000
3553.747483	13.952600
3553.579933	13.983200
3555.530917	13.905900
3552.635067	14.089200
3562.182617	13.538700
3558.876783	13.764800
3562.401667	13.737000
3563.538017	13.917300
3559.649117	14.190000
3562.410850	14.049400
3562.329167	14.080800
3564.141583	14.008100
3568.641400	13.789300
3571.023833	13.829300
3571.150517	13.825500
3564.367067	14.248800
3565.923583	14.167700
3574.438517	13.740900
3567.761917	14.152200
3567.009583	14.294000
3564.068733	14.476700
3582.610000	13.385500
3576.932317	13.733700
3572.449217	14.148000
3571.937200	14.229400
3577.836350	13.900000
3572.354550	14.244400
3589.530250	13.240000
3586.239983	13.445900
3576.325233	14.069300
3575.058750	14.175400
3584.744417	13.841400
3585.806350	13.896100
3595.402100	13.322200
3595.472900	13.332400
3594.458083	13.399100
3592.752117	13.506600
3594.367750	13.433500
3588.609933	13.766600
3594.403333	13.575500
3594.502800	13.766800
3580.893433	14.603900
3590.945283	14.038100
3584.456417	14.466600
3592.998533	14.111300
3597.361133	13.850300
3597.664367	13.859400
3593.580767	14.133900
3596.217217	14.002500
3597.487600	13.948300
3598.800617	14.045100
3598.664633	14.121200
3603.020967	13.869900
3602.985317	13.884300
3608.579317	13.563900
3604.750733	13.803800
3599.759167	14.055600
3595.692150	14.365000
3600.588183	14.100800
3601.203933	14.084900
3609.476883	13.733300
3607.534817	14.124900
3603.299700	14.416000
3600.676267	14.599800
3609.730133	14.058800
3606.751617	14.276400
3604.527950	14.457100
3612.073233	14.199500
3620.679400	13.705000
3608.197867	14.467200
3610.108717	14.377800
3622.183583	13.810400
3623.135967	13.787700
3620.435133	13.967000
3621.681600	13.895200
3622.657100	13.841500
3620.107683	14.002400
3622.849900	14.016100
3624.949467	13.935300
3618.714267	14.317200
3619.853500	14.275900
3633.754933	13.478600
3623.995317	14.045100
3622.058300	14.193400
3621.664800	14.223400
3622.466000	14.309800
3630.645567	13.885800
3628.126067	14.063100
3625.154850	14.251600
3625.400517	14.253300
3626.387717	14.214900
3632.613433	13.880300
3629.239600	14.113900
3632.329550	13.944400
3631.040483	14.039000
3631.527983	14.111900
3634.377883	14.258000
3638.283800	14.051800
3637.222567	14.130300
3636.309183	14.197700
3634.342200	14.296900
3637.612400	14.125000
3642.895667	13.830600
3644.899367	13.715400
3639.051000	14.195200
3642.584017	14.048400
3639.433917	14.353800
3638.113933	14.450900
3646.496133	13.977200
3650.336550	13.752100
3642.854650	14.343700
3639.837100	14.594500
3631.726433	15.131900
3638.825183	14.745500
3634.974300	14.976100
3636.269300	14.939800
3649.257233	14.211500
3650.913467	14.116800
3651.607750	14.195200
3647.248050	14.526400
3652.176217	14.283900
3654.563567	14.161800
3653.402850	14.262400
3654.283583	14.237000
3663.853317	13.694400
3660.587333	13.901300
3657.358267	14.164200
3661.135067	14.208000
3660.477350	14.284300
3662.538233	14.171600
3665.765550	13.990000
3656.991450	14.573800
3675.662000	13.459900
3675.809750	13.462900
3666.913050	14.012800
3665.902717	14.369700
3664.681633	14.520200
3668.732133	14.309300
3674.166767	14.021100
3679.706117	13.715400
3676.090667	13.938000
3681.723933	13.622000
3672.905600	14.179300
3665.702317	14.866500
3670.117183	14.715800
3671.740467	14.704500
3675.153267	14.532600
3681.283667	14.209200
3685.656717	13.959300
3684.486550	14.021500
3672.224667	14.760900
3679.735233	14.313800
3674.694150	14.648800
3682.037617	14.268900
3685.346800	14.346700
3685.642450	14.367700
3686.448083	14.342900
3687.651817	14.271000
3687.994600	14.226100
3682.567400	14.558200
3692.482467	14.206200
3693.190367	14.192700
3693.771600	14.230000
3694.379300	14.226100
3692.355600	14.332000
3688.350417	14.575500
3692.400467	14.343300
3699.945050	13.901500
3701.864800	13.782100
3700.966000	13.844500
3697.533617	14.327700
3706.392233	13.901300
3711.677033	13.627400
3698.129167	14.436000
3696.118567	14.543400
3705.250233	14.018900
3707.110450	13.921600
3710.824000	13.700500
3708.517433	13.970900
3705.468850	14.309200
3703.337667	14.466900
3698.518467	14.759700
3706.453500	14.334400
3698.991267	14.805000
3701.138083	14.698100
3700.803267	14.718600
3702.891833	14.719700
3713.806017	14.316600
3714.169450	14.344900
3710.688817	14.630700
3707.481517	14.837700
3714.991017	14.402400
3714.540683	14.460200
3711.833683	14.623400
3710.672400	14.690200
3717.065133	14.327000
3719.879450	14.169700
3711.262250	14.833300
3716.877083	14.563400
3715.775600	14.708200
3719.633167	14.512200
3724.246583	14.302100
3721.629800	14.423800
3726.282767	14.172600
3718.886950	14.632000
3732.844717	14.045100
3728.195183	14.458100
3731.035433	14.332100
3733.560683	14.194400
3721.000067	14.997300
3720.192083	15.115100
3720.618550	15.124900
3730.944367	14.561400
3727.827033	14.774600
3731.723417	14.562300
3730.052233	14.714000
3737.338100	14.475700
3735.690167	14.632500
3736.126783	14.585000
3735.874817	14.632500
3736.588017	14.596500
3737.069633	14.581400
3741.764033	14.334200
3735.383417	14.735700
3746.744633	14.259500
3737.456683	14.855300
3737.640900	14.881000
3749.801367	14.189700
3748.261517	14.279400
3740.715267	14.750100
3747.709150	14.336200
3750.304133	14.190800
3745.212117	14.742300
3753.697450	14.432500
3745.603650	14.952100
3753.356383	14.519600
3753.590317	14.532000
3755.866517	14.398800
3760.065500	14.164300
3751.595600	14.680900
3752.974350	14.675800
3757.610350	14.503600
3755.378367	14.674500
3750.868550	14.968900
3757.195850	14.631700
3754.460883	14.815100
3757.016000	14.707600
3757.914150	14.873800
3761.967833	14.676200
3758.815850	14.877700
3755.698200	15.072400
3765.866250	14.632000
3763.933350	14.771200
3763.396650	14.820100
3762.603033	14.886500
3760.546833	15.053600
3761.702300	15.000400
3758.072350	15.241600
3766.147200	14.782600
3767.725517	14.987100
3768.961133	15.011900
3779.405400	14.421100
3769.843200	14.997700
3768.526983	15.094100
3774.426417	14.745300
3768.994800	15.078700
3771.071133	14.969900
3763.986900	15.478000
3780.264833	14.639300
3773.364850	15.071200
3777.132900	14.873200
3768.143150	15.449800
3788.147533	14.414000
3783.628250	14.707900
3784.804167	14.664000
3787.587367	14.491800
3777.911433	15.093500
3779.177533	15.057800
3782.899167	15.072000
3779.044133	15.344000
3789.532083	14.718200
3786.482833	14.910200
3798.225350	14.215900
3794.019433	14.460800
3792.384900	14.573800
3793.500083	14.530700
3784.011367	15.273900
3795.445500	14.650900
3790.391717	15.020700
3791.114333	15.020000
3791.943433	15.021500
3792.948267	14.999700
3786.365350	15.461200
3794.369833	14.974100
3798.090933	14.775500
3801.141883	14.616500
3801.366517	14.718000
3809.164217	14.388000
3807.592017	14.514900
3806.128767	14.618700
3801.825133	14.875400
3799.278650	15.056200
3801.673817	14.947200
3803.897833	14.834300
3800.956000	15.046900
3806.240117	15.041700
3812.807150	14.705200
3816.679700	14.509000
3814.266050	14.654200
3800.279183	15.520700
3804.820150	15.252700
3805.748650	15.228100
3818.264550	14.494900
3819.519850	14.601100
3811.135750	15.124300
3812.924650	15.075400
3820.324650	14.650900
3815.392883	15.104600
3816.806033	15.083000
3817.958083	15.073100
3820.497933	14.912900
3825.748850	14.610100
3818.746000	15.050500
3821.336500	15.032800
3830.486617	14.596500
3827.493783	14.789900
3824.581400	14.994400
3829.100667	14.757600
3834.434817	14.460000
3831.167167	14.703300
3830.769950	14.935000
3831.170000	14.945500
3828.924350	15.102100
3827.356500	15.193300
3828.994433	15.131300
3826.182367	15.338400
3824.970317	15.413700
3826.359917	15.343200
3826.802150	15.446200
3832.342017	15.168900
3833.856933	15.124400
3839.558033	14.800400
3843.530950	14.580100
3838.750133	14.878700
3838.693800	15.076600
3838.087333	15.168200
3838.743650	15.173500
3848.723217	14.621400
3839.064583	15.214700
3844.061233	14.914700
3838.833583	15.256700
3845.505783	14.897000
3843.889017	15.241800
3848.522517	15.100800
3850.990417	14.989200
3854.873233	14.804600
3852.837283	14.943200
3855.924033	14.772800
3860.459017	14.550900
3847.247633	15.415100
3850.808400	15.235000
3847.097967	15.466800
3853.632500	15.182500
3866.069400	14.601700
3849.066517	15.642600
3859.131500	15.076000
3859.625883	15.068300
3855.889033	15.325400
3860.714600	15.019900
3858.024533	15.208400
3858.093733	15.208700
3855.946400	15.357700
3861.381450	15.045400
3871.084283	14.776100
3863.893367	15.297300
3874.764800	14.681500
3862.587600	15.439600
3864.172267	15.364200
3866.010500	15.301900
3864.601517	15.385200
3873.861483	14.843600
3881.286500	14.590600
3876.047800	14.940400
3864.740533	15.613400
3874.724933	15.042200
3880.920367	14.898300
3874.389250	15.313000
3870.602067	15.556500
3876.800483	15.192800
3872.649283	15.507200
3870.187650	15.711700
3878.592233	15.252200
3886.704467	14.783100
3875.757767	15.427200
3887.621417	14.739900
3874.262950	15.530500
3884.178917	14.957700
3879.714633	15.239300
3881.227733	15.176300
3878.088683	15.365300
3881.945467	15.326100
3888.823117	14.968800
3888.098167	15.040500
3878.190667	15.659100
3885.072233	15.292100
3894.933900	14.710900
3902.299600	14.517100
3893.288800	15.076900
3898.437750	14.782900
3888.745400	15.380800
3895.546200	15.113800
3895.156400	15.227200
3894.969400	15.238300
3892.254817	15.427200
3902.597483	14.840900
3898.195083	15.114500
3900.783733	15.041600
3895.859483	15.514400
3897.995183	15.440900
3902.726650	15.203200
3903.077650	15.206500
3904.875533	15.246200
3909.280150	15.001000
3904.360917	15.286200
3901.765717	15.467700
3908.731317	15.195300
3904.064950	15.518500
3903.079067	15.603900
3907.313533	15.370700
3905.866200	15.484000
3904.315633	15.594500
3918.804517	15.005700
3915.560983	15.216200
3916.014517	15.227700
3916.116250	15.248800
3927.114117	14.703900
3923.342667	15.001800
3917.910767	15.361200
3916.795433	15.458000
3917.505783	15.447500
3922.838067	15.161100
3914.587033	15.662300
3924.069867	15.138300
3924.094383	15.205100
3920.049583	15.571400
3917.960117	15.739200
3923.750733	15.428000
3924.627267	15.395700
3921.353300	15.604600
3923.014783	15.532100
3924.449050	15.471100
3921.411000	15.696400
3927.465217	15.639000
3928.995317	15.604800
3934.073350	15.331300
3929.480767	15.608100
3933.743633	15.354800
3931.555783	15.518900
3929.168567	15.696900
3934.194733	15.397100
3929.657500	15.796900
3929.582750	15.857800
3935.033667	15.581100
3937.060600	15.492700
3935.872333	15.708200
3933.624067	15.901800
3932.694767	15.954300
3935.217967	15.862200
3943.975683	15.350600
3938.823800	15.678400
3942.486700	15.553000
3945.278783	15.554600
3942.871383	15.727400
3944.861500	15.630400
3948.893583	15.419300
3949.708583	15.371000
3947.720533	15.511100
3941.152083	15.926300
3943.955583	15.814700
3951.870733	15.638900
3952.679100	15.645700
3952.381017	15.705000
3949.899733	15.884300
3951.051867	15.842700
3960.550183	15.276800
3961.295000	15.250300
3955.417250	15.605500
3953.656817	15.966000
3959.000633	15.761000
3955.249467	16.028400
3961.616083	15.662000
3962.226617	15.650100
3963.092317	15.621900
3967.491717	15.381300
3955.391550	16.123900
3955.702433	16.130000
3957.377250	16.059700
3966.349117	15.739200
3967.855083	15.694400
3974.224867	15.348900
3967.929883	15.745100
3970.805917	15.901800
3975.164633	15.637100
3972.411067	15.800700
3970.852133	15.898100
3970.472050	15.982300
3981.814383	15.436400
3977.738467	15.713700
3977.799400	15.729400
3976.999700	15.789100
3970.489650	16.201300
3969.648917	16.269000
3981.370383	15.584000
3980.951667	15.618600
3976.450983	16.038200
3978.111683	15.964100
3983.489167	15.684000
3977.651233	16.060700
3988.247967	15.460500
3979.617050	16.015300
3982.785183	15.894800
3991.278400	15.404200
3986.987000	15.683500
3982.870650	15.969700
3994.320000	15.655300
3993.729233	15.740300
3999.715450	15.418600
3991.319983	15.930800
4009.773317	14.989200
3997.011117	15.779700
3988.605717	16.305300
3984.269033	16.600700
4003.187700	15.529900
3999.926483	15.866900
4007.328317	15.452100
4008.946733	15.355700
4007.192067	15.464100
4010.114850	15.289000
3996.631800	16.113700
3994.430733	16.259000
3997.316417	16.126500
4004.206400	16.026400
4012.986167	15.561300
4011.714417	15.660600
3999.520267	16.412100
4010.908083	15.769400
4003.166483	16.253600
4008.937183	15.920300
4014.609917	15.579600
4017.633967	15.669300
4013.974217	15.985200
4021.820017	15.548700
4010.714350	16.204900
4017.388667	15.827700
4019.632150	15.720400
4023.073883	15.734000
4010.185917	16.513200
4021.101383	15.889100
4021.847683	15.865100
4025.398917	15.688200
4028.949017	15.579900
4019.187983	16.183100
4022.672750	16.005400
4023.327900	15.970000
4027.936550	15.852700
4030.907450	15.704800
4018.066633	16.475300
4028.244250	15.893200
4025.136200	16.074400
4032.634350	15.653800
4025.628100	16.291300
4035.265117	15.745200
4030.047350	16.040500
4034.933783	15.765500
4035.184433	15.750800
4035.771883	15.743300
4033.883850	15.829900
4033.777267	15.843900
4038.159700	15.826600
4033.892800	16.176700
4037.618833	15.988700
4038.803100	15.942400
4039.538167	15.916800
4038.741067	15.983400
4039.291317	15.958500
4043.663883	15.733400
4034.210650	16.450300
4039.648000	16.335400
4040.882333	16.297700
4041.045183	16.297700
4033.812200	16.762000
4047.547700	15.952600
4044.112067	16.180200
4046.434333	16.243400
4044.369350	16.394200
4043.946050	16.428100
4052.899950	15.902800
4049.679550	16.102900
4047.733283	16.215200
4055.743450	15.973900
4056.918117	15.916500
4058.130483	15.874700
4057.719333	15.917000
4062.593500	15.758500
4059.321067	15.992700
4060.030783	15.973400
4054.144467	16.343700
4050.945183	16.544600
4056.554317	16.231200
4059.366767	16.116900
4062.750333	15.936200
4060.466233	16.078400
4064.283883	15.865100
4061.826467	16.079100
4055.045200	16.642900
4057.949583	16.526300
4061.833167	16.333200
4062.674833	16.433600
4077.361883	15.673100
4073.387433	15.929600
4079.910217	15.546900
4072.848033	15.997700
4075.335783	15.995000
4078.942083	15.813500
4081.001917	15.728700
4079.981167	15.805200
4072.398267	16.279500
4085.040850	15.525100
4074.006017	16.209000
4067.356867	16.619700
4065.551817	16.770300
4067.258283	16.688000
4074.318783	16.502000
4078.817533	16.310900
4077.627417	16.487700
4083.257933	16.190000
4094.655200	15.530500
4080.831667	16.389600
4085.751467	16.124700
4083.479183	16.256900
4085.684433	16.220300
4080.939117	16.583700
4081.569850	16.599400
4089.244833	16.143800
4086.566950	16.499800
4087.133217	16.477500
4089.514650	16.376500
4083.478467	16.770600
4088.524617	16.531200
4094.430667	16.343100
4102.342350	15.923500
4100.744317	16.032300
4099.696250	16.114600
4104.374150	15.862000
4092.294433	16.615100
4097.610483	16.350800
4099.975250	16.204600
4094.253400	16.546600
4086.136717	17.043600
4101.409350	16.449700
4106.393733	16.242800
4105.742667	16.313400
4108.123050	16.170100
4111.430983	15.988400
4106.479417	16.302300
4110.327350	16.086700
4106.840133	16.315400
4105.347617	16.583700
4105.447750	16.607800
4098.137150	17.078800
4106.426517	16.629600
4110.752533	16.480400
4110.270367	16.637400
4113.552500	16.493800
4111.282600	16.651900
4109.557350	16.827400
4107.726550	17.086600
4108.761267	17.083200
4114.865567	16.746300
4116.919700	16.647400
4115.442933	16.759400
4118.134983	16.595000
4118.167733	16.619300
4122.656733	16.367600
4129.021450	16.003600
4115.033667	16.850100
4122.287567	16.789500
4126.000483	16.694600
4125.775133	16.745000
4119.392933	17.143400
4123.118067	16.951500
4128.864750	16.619500
4138.326933	16.239800
4130.686583	16.769900
4146.736700	15.849400
4138.567967	16.344900
4129.599617	16.878900
4135.796717	16.529700
4133.389817	16.866900
4137.688933	16.667600
4137.504083	16.705100
4134.418233	16.932500
4144.293550	16.393900
4133.610367	17.181600
4135.130717	17.114100
4139.322450	16.881100
4142.632533	16.688600
4151.653033	16.154600
4145.654983	16.516700
4139.178017	16.924200
4148.819900	16.353700
4145.716317	16.539900
4146.393233	16.541000
4148.012100	16.783000
4152.234433	16.585400
4153.319783	16.544000
4154.270800	16.502200
4147.231767	16.965900
4149.838950	16.855000
4150.257050	17.074600
4150.301500	17.076100
4152.600350	16.952800
4155.022433	16.823600
4163.152183	16.463000
4161.198133	16.639400
4157.848233	16.851200
4164.648050	16.480600
4156.730150	16.954300
4161.378017	16.698000
4157.792683	16.959800
4165.449883	16.593500
4160.160233	16.929200
4164.223083	16.685300
4164.571433	16.661900
4160.158133	16.963700
4161.243300	16.917700
4165.350750	16.723300
4166.971467	16.697700
4168.337383	16.911500
4171.542133	16.750700
4169.926133	16.860500
4181.669200	16.174600
4174.435233	16.632200
4172.509083	16.756400
4173.386200	16.717300
4171.910883	16.825700
4169.252433	17.336300
4175.261483	16.996700
4167.332600	17.494300
4175.032117	17.052000
4180.702200	16.786000
4181.323383	16.786100
4181.180583	16.838900
4180.790433	16.865600
4183.558800	16.748500
4181.283667	16.919400
4179.530283	17.101700
4179.595433	17.272100
4183.534733	17.089400
4189.370583	16.766900
4185.647767	16.998000
4184.938150	17.059000
4184.435483	17.125700
4184.091467	17.143500
4192.463317	16.669200
4198.139350	16.588300
4193.878150	16.882600
4203.273517	16.317300
4198.142183	16.616000
4198.401767	16.637400
4200.819000	16.489300
4197.595250	16.705900
4193.412750	16.954900
4201.475533	16.838900
4206.067650	16.577800
4201.283083	16.889900
4206.357483	16.589600
4207.744117	16.606800
4212.797650	16.391500
4214.603083	16.319300
4206.849333	16.766900
4207.234917	16.780200
4207.689767	16.768800
4204.158450	17.012800
4201.178483	17.255000
4209.828367	16.807200
4207.713400	16.946200
4208.996350	16.904800
4201.790433	17.381600
4207.996900	17.019400
4204.643150	17.260000
4219.885000	16.454800
4216.404350	16.903300
4214.630950	17.050900
4216.312150	16.980400
4212.379883	17.255900
4218.953950	16.926400
4211.835067	17.369700
4214.487267	17.236200
4214.693250	17.237800
4215.194950	17.403100
4221.918783	17.026700
4217.041317	17.367300
4222.765700	17.067700
4221.267150	17.228800
4228.176000	16.861000
4227.056333	16.950800
4228.245750	16.893100
4226.575667	17.020500
4232.493233	16.703300
4226.823033	17.110100
4231.461300	16.894000
4226.007800	17.280400
4226.597983	17.282600
4229.422317	17.171100
4229.595400	17.206300
4232.060700	17.108200
4237.258867	16.825500
4237.976783	16.859000
4235.032500	17.359900
4245.128483	16.805900
4252.835983	16.363400
4249.679667	16.552200
4247.696033	16.700600
4236.226933	17.443100
4243.718467	17.203200
4243.333900	17.276800
4246.753350	17.095600
4244.184883	17.255000
4248.387800	17.016100
4248.617083	17.021300
4249.853533	17.062700
4249.004800	17.162500
4246.908500	17.305600
4245.525583	17.404400
4242.122117	17.708700
4239.763017	17.869500
4253.032533	17.134400
4250.017683	17.313800
4259.513333	17.083700
4257.061533	17.285900
4255.352083	17.458700
4253.146383	17.633300
4258.030833	17.396300
4261.534733	17.231600
4267.501500	16.879600
4253.638133	17.717300
4269.236367	16.783800
4268.203067	16.836900
4261.023150	17.316400
4269.948650	16.969300
4263.058683	17.401100
4263.069867	17.453100
4264.453250	17.388400
4269.194933	17.123900
4272.007633	16.967300
4267.559250	17.259700
4265.959500	17.370400
4271.139500	17.218000
4274.355217	17.086500
4267.920700	17.466100
4275.847517	17.004000
4271.127267	17.308800
4270.722667	17.361300
4271.194100	17.362000
4266.205683	17.647700
4272.822267	17.648400
4272.255633	17.683400
4278.217483	17.335700
4278.956817	17.299500
4279.252300	17.430400
4289.823200	16.871500
4283.378300	17.290300
4282.577200	17.358700
4289.999183	16.920200
4289.054167	16.984800
4283.474283	17.405900
4286.703117	17.388900
4295.445533	16.893800
4298.738267	16.736100
4286.776633	17.452700
4285.361733	17.550500
4287.593300	17.461600
4286.835417	17.537700
4290.194050	17.405800
4296.228800	17.345500
4290.629650	17.734300
4289.878317	17.821500
4283.369400	18.233200
4304.048933	17.031800
4300.472117	17.248500
4299.307617	17.317200
4298.989583	17.331800
4303.064017	17.332800
4297.695383	17.774900
4304.292783	17.418500
4309.763817	17.090400
4298.970583	17.760800
4305.801033	17.363600
4303.344583	17.539100
4299.400783	17.805500
4306.885683	17.381600
4310.877017	17.125500
4303.532750	17.637400
4309.661200	17.483500
4310.022583	17.548100
4306.742583	17.825000
4309.862783	17.656700
4312.238050	17.527000
4309.799950	17.672200
4307.997333	17.780600
4305.745667	17.981700
4318.471100	17.525200
4319.836100	17.461600
4317.043767	17.638200
4314.811983	17.793800
4319.752433	17.651600
4318.271433	17.777300
4324.358367	17.425200
4319.956117	17.717400
4330.527033	17.093000
4324.579917	17.467800
4326.661233	17.491400
4327.456250	17.529400
4312.658450	18.452200
4321.957983	17.924300
4326.219700	17.674600
4322.625000	17.920600
4316.541150	18.314500
4334.297483	17.276000
4331.993850	17.518000
4342.126433	17.014400
4330.056183	17.750900
4332.822833	17.613500
4333.997450	17.542600
4332.960900	17.624800
4329.352733	17.878100
4337.350783	17.404700
4340.690017	17.294400
4345.305750	17.282800
4343.439767	17.436000
4348.040250	17.185900
4336.920600	17.901400
4334.510967	18.087900
4336.928633	17.965400
4344.594667	17.540400
4351.724067	17.119500
4351.975667	17.475300
4349.266800	17.655100
4355.336550	17.322100
4344.132967	17.975400
4346.753367	17.898000
4352.670400	17.576200
4347.928950	17.908900
4351.878867	17.679900
4349.694100	17.838700
4348.635117	17.925900
4359.144933	17.501600
4358.293717	17.637300
4355.891400	17.786200
4352.047450	18.044500
4363.395817	17.413200
4351.662017	18.113400
4355.856467	17.860800
4352.127083	18.108800
4354.983050	18.060100
4357.134217	18.204000
4359.456833	18.099800
4365.852550	17.737600
4363.736233	17.923400
4360.060267	18.295500
4360.890583	18.263600
4363.599533	18.135200
4361.798217	18.249300
4365.875900	18.030700
4371.825367	17.681400
4376.139483	17.578400
4360.306000	18.601300
4374.980950	17.750500
4369.921683	18.063500
4383.143767	17.302200
4378.509650	17.605900
4379.359883	17.554400
4375.391317	17.804700
4379.660200	17.748100
4386.072267	17.475300
4384.771000	17.564500
4382.919933	17.668100
4388.925367	17.312400
4388.599967	17.312700
4381.996550	17.706100
4382.680933	17.694500
4386.633800	17.585500
4388.806700	17.703100
4375.494667	18.534000
4386.411350	17.889400
4387.079350	17.847100
4391.725583	17.714000
4388.164183	17.968400
4385.685383	18.140900
4387.941900	18.014500
4381.578467	18.422700
4387.698217	18.083700
4397.860317	17.690700
4397.116933	17.777900
4397.218367	17.778900
4391.440900	18.136900
4397.309067	17.842500
4396.420833	17.873900
4394.025567	18.041100
4403.126567	17.516700
4400.439050	17.908000
4401.930517	17.955000
4395.903683	18.353900
4400.770883	18.078800
4399.290633	18.189500
4398.576417	18.279000
4404.207583	17.968400
4401.711233	18.134600
4396.692050	18.568000
4400.446550	18.580300
4403.639767	18.449400
4403.917700	18.454000
4404.260300	18.471100
4406.225133	18.446900
4410.081683	18.233600
4408.463417	18.365700
4404.956033	18.596300
4416.440550	18.064600
4416.215183	18.128900
4417.661350	18.062800
4418.294750	18.040900
4413.547350	18.370000
4420.813283	17.940800
4416.161767	18.228600
4418.727817	18.083100
4420.137100	18.024700
4417.138300	18.217900
4414.966967	18.583500
4419.487250	18.385600
4426.650167	17.976600
4417.528450	18.530200
4425.398067	18.081300
4426.612333	18.019100
4418.156367	18.542100
4419.069783	18.495500
4423.550083	18.324200
4427.375167	18.229200
4432.756233	17.951900
4431.632850	18.041800
4433.125733	17.996600
4430.196483	18.331100
4434.788633	18.087800
4436.631600	18.008500
4432.628167	18.279600
4438.842867	18.061500
4440.044800	18.054100
4442.560000	17.921500
4439.751350	18.113500
4440.553517	18.104100
4437.807433	18.304700
4437.098483	18.393200
4441.394833	18.148700
4438.388550	18.345400
4444.778250	17.995300
4434.203883	18.942200
4442.389333	18.588800
4444.842983	18.475100
4442.424100	18.650800
4461.627200	17.543500
4453.574617	18.026400
4447.875100	18.350800
4446.747117	18.419400
4445.443467	18.674400
4453.067367	18.433200
4449.497283	18.692900
4453.567750	18.448300
4451.745450	18.665200
4450.466733	18.875000
4452.825233	18.779300
4462.077167	18.244200
4454.806367	18.721200
4458.237333	18.664400
4461.970067	18.461400
4461.613117	18.515700
4459.772500	18.624400
4463.186333	18.447200
4466.290883	18.253700
4460.766450	18.592000
4462.493500	18.499000
4462.115483	18.513200
4459.196167	18.698700
4472.552267	18.207900
4477.336067	18.043500
4463.321150	18.931300
4468.099300	18.649600
4479.517433	17.968400
4474.713850	18.275200
4481.580900	17.989300
4480.207300	18.194200
4470.198383	18.860000
4476.233350	18.550300
4479.532833	18.373400
4480.255133	18.347900
4475.993517	18.609600
4474.777100	18.727600
4481.602000	18.344200
4470.252100	19.051000
4474.605250	18.862300
4486.144583	18.456800
4486.150917	18.507900
4485.016217	18.603900
4487.277000	18.492100
4489.528200	18.367600
4492.756850	18.176800
4492.580933	18.165800
4485.781833	18.587300
4479.694133	18.950300
4490.088350	18.343900
4496.656917	18.086400
4489.416633	18.568400
4492.929467	18.418800
4491.751100	18.508600
4490.474917	18.643200
4491.564983	18.607100
4500.636183	18.104000
4493.671633	18.524900
4494.015350	18.785800
4499.049167	18.615000
4490.878867	19.161000
4496.472167	18.867000
4506.672867	18.273300
4500.486967	18.673500
4493.040500	19.162000
4500.560633	18.729200
4502.201183	18.820100
4508.898633	18.625700
4512.408767	18.435600
4511.564583	18.477800
4514.685367	18.318000
4506.107033	18.845600
4507.764833	18.747800
4512.246883	18.515900
4515.236083	18.344600
4509.149950	18.737800
4509.403350	18.766900
4515.493650	18.731800
4517.752483	18.659900
4520.368983	18.534800
4521.384633	18.511400
4514.872783	18.932900
4516.719817	18.832500
4516.866550	18.927100
4515.334767	19.168200
4527.094467	18.486600
4523.795367	18.687300
4524.353583	18.670400
4525.345617	18.647100
4523.949983	18.727700
4518.471383	19.067000
4522.372183	18.843500
4513.976067	19.369800
4524.509450	18.997900
4525.049050	19.138000
4524.737083	19.189400
4533.134417	18.705600
4526.260767	19.110300
4534.202150	18.635200
4529.585767	18.928200
4531.532133	18.839600
4535.712333	18.593600
4540.565083	18.306500
4536.118117	18.604500
4534.992650	18.964900
4537.599033	18.863900
4535.292650	19.019500
4537.228283	18.906500
4541.682233	18.673700
4537.009683	18.959000
4541.740650	18.787900
4541.666950	18.834100
4543.667083	18.740900
4538.688133	19.072100
4537.928033	19.152200
4544.537950	18.784900
4557.672750	18.010300
4548.835667	18.542400
4542.792333	18.923000
4546.559783	18.708200
4552.181517	18.765600
4549.786317	18.959700
4554.003983	18.750500
4561.527350	18.306100
4556.011283	18.685700
4558.489150	18.622900
4555.539917	18.815400
4545.368933	19.471100
4549.816117	19.244100
4559.735367	18.818700
4559.182067	18.907200
4557.524883	19.045700
4567.945367	18.453300
4559.428100	18.989800
4560.347617	18.926700
4562.010750	18.847000
4563.025650	18.812800
4575.767450	18.397000
4563.039800	19.159000
4561.857733	19.271900
4564.346250	19.159300
4565.821583	19.210700
4569.013183	19.083200
4569.700150	19.085500
4567.440000	19.234600
4571.670450	19.006000
4571.713733	19.003700
4567.474867	19.383600
4577.494917	18.952200
4574.009467	19.190400
4569.873117	19.476000
4571.621983	19.393400
4576.942817	19.086600
4580.629017	18.881700
4578.958717	19.004700
4582.859817	18.875700
4584.390417	19.027800
4583.496317	19.106100
4586.066867	18.967500
4580.701700	19.319500
4583.209200	19.192000
4583.587783	19.173800
4581.105400	19.333600
4579.030683	19.468400
4580.938933	19.383200
4581.336317	19.374000
4594.609333	18.926900
4589.587650	19.303900
4595.544617	19.009500
4589.470450	19.356100
4589.321683	19.356200
4585.924333	19.593800
4585.477550	19.756900
4593.566250	19.299400
4588.564633	19.634300
4594.816133	19.277600
