#Y dist(nm)	Y force(pN)
0.000000	0.401400
-5.130467	0.686500
1.672817	0.260000
-0.938450	0.389400
-8.198967	0.708100
-7.596917	0.647500
-7.627333	0.628400
-13.168783	0.962000
-3.123767	0.376600
-5.856600	0.514200
-2.273350	0.085500
-7.761367	0.397000
-3.881800	0.143100
-10.569833	0.532100
-5.558650	0.106500
-15.973817	0.689500
-2.082950	-0.126900
-15.435700	0.631500
-15.891683	0.678200
-12.314150	0.452700
-19.957517	0.835000
-19.456967	0.698500
-11.487117	0.202000
-12.043617	0.241000
-22.389167	0.835000
-19.657850	0.665700
-17.310367	0.501700
-17.682100	0.351300
-14.857817	0.157600
-18.650750	0.364800
-21.478667	0.555700
-30.500350	0.958800
-21.597567	0.414100
-21.307567	0.373600
-26.447083	0.692600
-27.743900	0.777900
-31.544733	0.992300
-26.324400	0.498300
-28.497600	0.625800
-15.467533	-0.172300
-22.378800	0.229800
-25.435667	0.322600
-36.627567	0.931300
-34.193083	0.759500
-34.247483	0.777200
-31.486750	0.593100
-29.966367	0.494500
-39.884383	0.953600
-26.463133	0.113000
-29.050850	0.247800
-35.645733	0.631100
-35.204317	0.567400
-36.309383	0.497600
-36.389317	0.511000
-34.875867	0.387100
-35.435900	0.402000
-40.364533	0.674000
-37.715000	0.507000
-42.572650	0.595800
-42.583233	0.563900
-30.327783	-0.167200
-30.143033	-0.184600
-39.844950	0.255600
-39.703017	0.204100
-43.874733	0.415100
-45.212300	0.483600
-43.709217	0.387700
-38.350017	0.065200
-39.140283	-0.040900
-52.044217	0.653200
-43.118133	0.109100
-51.292500	0.587700
-48.499667	0.419500
-55.622517	0.831400
-51.891717	0.551500
-47.143333	0.147800
-49.914350	0.294000
-50.491767	0.321700
-47.316783	0.111200
-55.365633	0.445700
-55.997050	0.486000
-50.322067	0.114400
-53.307333	0.304100
-55.475133	0.415700
-52.390283	0.228500
-55.071133	0.174200
-57.541267	0.296500
-60.960900	0.485400
-60.349283	0.449300
-66.549517	0.701200
-55.648017	0.023500
-69.548667	0.843400
-67.775283	0.717200
-60.002217	0.247900
-64.378467	0.493600
-65.880067	0.500800
-66.298417	0.484300
-59.403317	0.064300
-68.801550	0.605400
-63.414917	0.277300
-67.685967	0.529600
-56.652967	-0.200300
-58.249333	-0.156400
-60.384433	-0.062500
-61.508217	-0.023300
-71.420383	0.428300
-67.813983	0.131900
-75.366817	0.571000
-80.172750	0.826200
-74.551250	0.501600
-71.763733	0.302600
-72.066100	0.286200
-74.897833	0.287000
-79.369367	0.556900
-81.351083	0.666200
-75.097600	0.270900
-81.163017	0.510100
-78.948433	0.349400
-74.010050	0.031800
-79.998117	0.393700
-83.166850	0.568200
-82.022950	0.501300
-82.815933	0.322400
-87.808550	0.636900
-94.812200	1.098000
-86.947817	0.619600
-89.954483	0.667400
-86.681067	0.429100
-93.763733	0.860900
-85.679067	0.340300
-88.035683	0.461600
-83.450800	0.177900
-88.913267	0.404200
-91.088983	0.421100
-97.252300	0.778500
-92.438667	0.493300
-94.303733	0.596900
-91.990717	0.477100
-95.835800	0.636600
-101.079717	0.820000
-95.069083	0.458300
-93.958633	0.401900
-94.475200	0.411300
-99.650167	0.595000
-97.779433	0.449300
-101.960283	0.678500
-95.230983	0.300200
-96.868200	0.372900
-99.601417	0.531400
-91.651533	-0.034000
-94.136417	0.102400
-94.132533	0.101300
-94.603217	0.095200
-108.172700	0.773700
-102.037017	0.376600
-102.052083	0.349400
-103.434600	0.422100
-103.579167	0.427000
-103.579983	0.409100
-93.345950	-0.324900
-101.261583	0.038300
-112.315733	0.617900
-108.567133	0.444800
-108.932483	0.434300
-106.391233	0.275600
-105.153050	0.117900
-111.165900	0.342900
-110.372733	0.282200
-112.414367	0.383200
-114.953433	0.527300
-118.977433	0.651200
-113.429883	0.303200
-111.620433	0.180500
-119.441883	0.623900
-115.664217	0.374800
-114.236783	0.288200
-122.801183	0.611900
-119.106700	0.371100
-121.038050	0.481500
-119.620017	0.376600
-122.435067	0.429700
-118.070333	0.140600
-124.808700	0.492000
-124.559567	0.513700
-127.422117	0.670300
-127.112433	0.642200
-115.667100	-0.158400
-127.106450	0.440100
-123.376600	0.156300
-129.850550	0.556200
-126.259750	0.329400
-131.960050	0.689700
-124.907317	0.186100
-131.013600	0.421200
-124.764000	0.021300
-133.099567	0.515500
-134.064200	0.545400
-133.981983	0.426500
-133.084783	0.356300
-130.294733	0.174500
-134.655633	0.415100
-132.790800	0.296400
-137.621067	0.567100
-139.932133	0.516500
-141.387000	0.588000
-136.732133	0.303200
-144.052667	0.727300
-146.354033	0.762800
-143.119000	0.548400
-145.312583	0.679100
-135.309850	0.078600
-137.210433	0.182600
-140.847483	0.403100
-131.422767	-0.331400
-138.450283	0.053900
-142.052383	0.267800
-145.714017	0.474700
-148.375350	0.555000
-147.673983	0.425000
-145.419883	0.280100
-148.899683	0.470300
-146.654333	0.327200
-155.373250	0.831600
-150.660817	0.517000
-149.715333	0.301400
-159.726133	0.893900
-151.252933	0.360500
-149.654883	0.270800
-138.779667	-0.390200
-154.884567	0.538900
-152.168400	0.166800
-154.148000	0.272700
-153.243933	0.195200
-158.219133	0.479300
-159.528317	0.437800
-155.366700	0.177300
-149.076683	-0.226900
-152.694600	-0.025500
-150.629650	-0.165900
-151.838567	-0.112700
-157.707450	0.219300
-161.221167	0.437500
-156.604317	0.164200
-158.927217	0.305200
-152.174217	-0.087200
-155.340883	0.076100
-163.389233	0.557600
-161.924017	0.465100
-159.641917	0.336100
-151.285517	-0.154400
-157.964350	0.081000
-167.962400	0.321000
-166.046150	0.193500
-162.473950	-0.074400
-170.045350	0.361200
-173.922767	0.553600
-173.713000	0.531600
-172.095400	0.428100
-170.062067	0.284800
-171.259167	0.345700
-169.608183	0.230600
-178.268833	0.596900
-171.011433	0.138200
-166.106583	-0.187900
-175.419083	0.351200
-176.527333	0.261200
-172.860633	0.029000
-170.006417	-0.146600
-177.346217	0.256000
-179.239600	0.320100
-173.574817	-0.079400
-174.790350	-0.012300
-178.249600	0.208800
-184.019733	0.542000
-183.462100	0.482100
-187.965733	0.769100
-186.778017	0.680800
-184.669383	0.506000
-184.597333	0.424400
-185.749900	0.476700
-182.992217	0.300100
-179.562217	0.071500
-184.801417	0.353200
-181.106967	0.120400
-182.686800	0.205500
-181.828417	0.135400
-182.657717	-0.101600
-190.700733	0.341900
-192.495317	0.426700
-180.104067	-0.333500
-197.977733	0.692600
-189.688017	0.188500
-194.163950	0.438300
-190.787767	0.223600
-192.488233	0.017900
-199.280700	0.422100
-196.499183	0.261200
-192.731333	0.019400
-201.432750	0.470400
-197.759700	0.219900
-203.944533	0.586400
-193.914583	-0.023200
-195.725700	0.065700
-197.816583	0.176000
-190.023617	-0.413300
-194.946367	-0.219500
-204.355033	0.347600
-203.703900	0.285900
-197.809067	-0.057800
-200.503600	0.053700
-204.179317	0.273100
-201.651650	0.123300
-204.693717	0.264700
-205.061817	0.051400
-207.601900	0.157800
-204.986117	-0.036200
-216.805767	0.650200
-207.210183	0.052700
-202.013467	-0.261800
-203.474967	-0.200300
-214.130167	0.435100
-215.484033	0.282200
-207.666567	-0.232400
-210.868283	-0.059800
-214.490867	0.142600
-221.275683	0.446000
-216.579250	0.098100
-215.109283	-0.001000
-216.824950	0.089100
-218.618133	0.180200
-222.594000	0.400200
-223.559767	0.532000
-219.669967	0.419200
-210.335083	-0.142600
-206.070950	-0.417300
-209.275800	-0.252000
-220.203700	0.389700
-217.647150	0.226800
-218.732767	0.280300
-219.593250	0.318900
-211.188350	-0.174600
-212.744300	-0.042000
-219.543417	0.590800
-217.015517	0.473800
-212.863050	0.229800
-211.826900	0.145800
-209.258250	0.113100
-210.373117	0.206200
-217.334083	0.647000
-209.889500	0.188700
-206.572183	-0.008500
-212.855600	0.357000
-205.837517	0.048400
-214.049217	0.548200
-208.096567	0.235000
-206.808633	0.161600
-201.736483	-0.153100
-205.953917	0.082300
-210.628317	0.436600
-209.861717	0.430300
-206.260917	0.237400
-204.043133	0.155000
-201.761717	-0.027200
-198.422950	-0.232500
-204.778817	0.123400
-203.074517	0.087400
-202.714350	0.027000
-200.451167	-0.107900
-200.987717	-0.061700
-205.140150	0.290400
-201.149617	0.052300
-201.377967	0.114400
-196.668200	-0.173400
-191.748350	-0.487500
-196.211117	-0.234800
-194.581750	-0.249300
-207.561800	0.564900
-206.313100	0.555000
-197.674750	0.021600
-207.360500	0.591000
-204.369517	0.430900
-202.857517	0.401800
-198.717150	0.247500
-211.593433	1.010000
-198.291033	0.239600
-202.781617	0.534700
-198.218867	0.340600
-195.251800	0.201300
-194.983333	0.221000
-203.218683	0.709100
-202.134700	0.623100
-194.315450	0.160200
-187.697800	-0.073200
-193.420083	0.262100
-196.714850	0.492000
-196.686067	0.493600
-201.464933	0.780200
-188.513050	0.004200
-182.293017	-0.225800
-181.988850	-0.268200
-192.993450	0.392400
-186.434383	-0.011500
-201.245567	0.957100
-193.091150	0.501900
-184.703683	0.010400
-191.292783	0.431300
-190.447467	0.387100
-186.868867	0.178600
-192.627867	0.530200
-197.422083	0.822500
-197.638333	0.874400
-182.779700	0.070800
-193.518333	0.755000
-184.983167	0.210400
-194.936000	0.816300
-186.949050	0.391200
-182.604250	0.147600
-182.908583	0.203000
-187.706017	0.468400
-187.909183	0.480500
-188.228467	0.501700
-190.985033	0.771500
-184.021133	0.381500
-186.476033	0.557600
-184.216383	0.444800
-177.050850	0.016800
-179.505667	0.142000
-186.307983	0.590600
-179.696767	0.222100
-191.767817	0.957100
-179.096517	0.185200
-172.199767	-0.151400
-176.496900	0.187800
-178.472333	0.303200
-177.414467	0.280300
-179.468117	0.385600
-177.461450	0.294000
-167.568967	-0.296600
-177.761367	0.415600
-169.889650	-0.049500
-175.564983	0.277400
-178.208667	0.418600
-180.769267	0.708400
-176.765700	0.489000
-174.060383	0.362600
-175.598000	0.435000
-166.448150	-0.091200
-168.779650	0.045000
-169.786167	0.212500
-166.738333	0.057800
-173.966650	0.517200
-167.534067	0.127300
-168.336067	0.196300
-170.969667	0.357400
-169.517433	0.347600
-171.017233	0.476900
-167.851167	0.304000
-165.455683	0.182300
-165.896200	0.218400
-171.344383	0.551300
-180.876667	1.183600
-161.380500	0.080700
-160.783067	0.036100
-163.168633	0.184100
-165.775533	0.338900
-158.726700	0.042900
-159.581450	0.080100
-160.714800	0.182100
-165.132733	0.457100
-163.516717	0.356800
-164.827317	0.411100
-171.232717	0.900400
-169.908883	0.851300
-157.876883	0.155000
-162.398417	0.409600
-160.960150	0.339900
-174.525900	1.149600
-161.561317	0.520000
-158.088933	0.303800
-152.874717	-0.016700
-155.836717	0.171400
-155.000617	0.235000
-152.658417	0.079000
-159.516733	0.508400
-151.944067	0.049600
-154.392250	0.221400
-144.744850	-0.257700
-149.549500	0.015900
-157.235800	0.502500
-154.311083	0.311900
-156.579550	0.480900
-158.207883	0.593600
-152.322483	0.250700
-160.926967	0.770800
-163.969233	0.968000
-164.322033	0.989900
-148.706983	0.271700
-159.813983	0.911600
-157.872883	0.804800
-157.750417	0.777700
-147.923567	0.215800
-151.312067	0.439600
-155.872667	0.730000
-154.272067	0.632800
-156.661883	0.904100
-150.135700	0.542100
-140.370083	-0.070900
-153.468983	0.720800
-153.381167	0.750100
-152.692100	0.742500
-152.859683	0.797000
-140.993367	0.139300
-150.107650	0.668700
-147.711500	0.526500
-142.292617	0.250000
-141.907067	0.322300
-152.034317	0.940300
-147.365267	0.681700
-151.112383	0.911600
-153.229583	1.044200
-152.384600	0.983400
-143.703033	0.627800
-145.913667	0.761500
-138.825250	0.401100
-143.119467	0.671200
-148.579217	1.014700
-140.773817	0.525700
-144.499833	0.880100
-138.933050	0.555600
-136.200433	0.398300
-131.872383	0.131300
-141.467100	0.848700
-142.178717	0.874300
-140.015700	0.757800
-134.327083	0.416000
-140.916517	0.832900
-137.108417	0.645400
-135.906700	0.592500
-140.746200	0.899700
-124.755150	-0.056700
-135.660017	0.594700
-136.557067	0.644500
-129.682250	0.296400
-126.697450	0.120300
-126.961100	0.160200
-134.011167	0.577600
-134.374900	0.619800
-130.421633	0.368000
-140.562183	1.055000
-136.721000	0.827700
-133.407167	0.694300
-135.834917	0.838900
-131.483950	0.562500
-131.145717	0.582700
-123.523283	0.210800
-127.102133	0.458300
-119.854300	0.107400
-128.321183	0.614000
-123.317600	0.320400
-125.741267	0.471700
-120.731133	0.282200
-124.360450	0.522300
-124.066750	0.523500
-112.134217	-0.182600
-127.054283	0.723800
-129.171717	0.937000
-121.177150	0.499200
-124.824233	0.720800
-117.110417	0.275200
-122.719867	0.617200
-119.335933	0.434300
-119.953117	0.558700
-118.793133	0.493100
-123.939667	0.835900
-122.125517	0.758200
-119.059500	0.563100
-115.288433	0.331400
-118.486283	0.641000
-115.165250	0.435900
-120.652350	0.785700
-121.688317	0.868000
-109.863917	0.254500
-123.249283	1.063100
-116.334267	0.743800
-115.405117	0.641500
-107.442200	0.166800
-110.774450	0.371700
-112.745017	0.561400
-110.862883	0.521000
-108.071117	0.373600
-102.940700	0.084900
-115.080850	0.782700
-108.267100	0.385200
-115.043483	0.831200
-112.996167	0.799300
-107.388217	0.480700
-108.449250	0.575100
-102.051717	0.200500
-110.452433	0.694100
-111.221433	0.765500
-109.811983	0.826700
-105.894883	0.586400
-109.355483	0.836900
-103.989367	0.499300
-101.654217	0.495100
-102.861883	0.588500
-107.760933	0.911600
-103.903367	0.681400
-100.896850	0.523500
-105.842817	0.788200
-102.356267	0.629200
-105.631367	0.841300
-99.579300	0.523500
-105.269200	0.850500
-106.999600	0.973200
-104.787167	0.854800
-102.571100	0.774300
-100.577133	0.758000
-100.659767	0.754300
-108.690433	1.243100
-98.564217	0.678700
-98.143983	0.792500
-103.922617	1.128100
-96.035017	0.724000
-91.882833	0.478700
-91.720483	0.455900
-94.145333	0.579200
-95.940300	0.717600
-97.752800	0.839700
-98.147900	0.887100
-100.243517	1.037500
-95.062400	0.725100
-93.011633	0.605300
-95.013250	0.756900
-97.762217	0.930400
-101.201983	1.194800
-96.181783	0.881300
-94.982500	0.869700
-96.625000	0.987300
-97.741883	1.122500
-94.799950	0.994200
-95.674483	1.053200
-90.621617	0.766900
-88.221500	0.646500
-85.917067	0.588100
-83.153850	0.438300
-82.368950	0.429900
-89.875533	0.867200
-90.188450	0.892500
-87.162250	0.738900
-89.168183	0.992900
-79.269683	0.425600
-87.542117	0.895300
-91.682950	1.178100
-87.544533	1.052900
-88.779250	1.141500
-91.747883	1.369700
-75.115133	0.390200
-86.360533	1.038800
-85.328200	0.969000
-78.099500	0.574200
-76.223417	0.472900
-85.423967	1.079500
-82.163750	0.873900
-74.024417	0.406000
-78.917317	0.703000
-76.917867	0.722800
-80.667050	0.937500
-69.859150	0.268200
-72.474617	0.459100
-72.016700	0.471900
-72.799950	0.588900
-72.603767	0.590200
-79.779067	1.058500
-76.918833	0.890600
-79.634533	1.071200
-80.821633	1.157300
-74.482050	0.838200
-72.252567	0.722800
-77.894033	1.060400
-79.731800	1.184400
-70.916450	0.674700
-77.297133	1.064600
-78.148350	1.173900
-71.905933	0.813500
-70.305650	0.735600
-71.036833	0.789500
-65.324333	0.555800
-71.632150	0.991500
-65.981333	0.687800
-68.348617	0.844000
-66.992050	0.757800
-64.078683	0.586400
-66.677817	0.814000
-65.678817	0.830200
-60.425717	0.536800
-59.077650	0.484200
-60.710500	0.580500
-59.009650	0.492000
-65.895533	0.927800
-67.486150	1.131900
-68.940883	1.247300
-59.282450	0.725700
-65.663800	1.094100
-65.355700	1.077600
-64.029867	1.003600
-65.253250	1.138500
-58.736767	0.745600
-65.644367	1.168600
-62.652800	1.005300
-65.304133	1.278800
-53.845700	0.643800
-65.043567	1.392400
-66.762500	1.502100
-62.726917	1.270900
-52.330683	0.639500
-60.342717	1.214800
-57.692583	1.105700
-47.212067	0.533200
-54.642050	0.990600
-56.270683	1.061300
-54.210133	0.964100
-55.970150	1.083000
-55.009450	1.036800
-58.834000	1.293000
-54.282450	1.039500
-59.302583	1.351100
-57.161333	1.278200
-53.724733	1.102100
-48.321000	0.798000
-53.007767	1.083700
-54.018350	1.171200
-56.182250	1.300500
-49.453217	1.017100
-42.637367	0.637000
-45.586867	0.874900
-46.971883	0.961400
-44.684183	0.825200
-39.363000	0.509700
-46.299417	1.045900
-41.839050	0.767100
-42.479017	0.804100
-37.324350	0.499500
-38.043350	0.635700
-37.697367	0.647800
-35.707850	0.534000
-42.641833	0.939800
-42.678983	0.974600
-42.349700	0.956700
-39.628000	0.847200
-44.545033	1.215800
-38.580883	0.882800
-43.430950	1.217100
-40.367033	1.029800
-41.118217	1.094800
-39.028250	0.969300
-38.949817	1.078000
-38.838083	1.095800
-33.524300	0.775200
-36.997233	1.025300
-30.369083	0.739100
-26.831150	0.517500
-26.412033	0.516800
-36.302350	1.092600
-34.603667	1.028200
-37.013917	1.160200
-30.514250	0.898500
-26.492433	0.696200
-29.306133	0.910100
-30.490900	0.975300
-35.347317	1.276300
-20.957850	0.428400
-25.786317	0.906400
-37.929617	1.589800
-29.593183	1.086500
-23.613517	0.738100
-18.644150	0.523500
-28.065000	1.120200
-25.578050	0.992400
-26.814650	1.087200
-22.041000	0.838200
-24.052067	0.895900
-23.657517	0.885400
-27.070600	1.083000
-23.028733	0.854300
-18.338650	0.729300
-20.950450	0.891300
-13.309367	0.415300
-16.140167	0.576700
-19.362417	0.855400
-22.234117	1.048000
-21.075617	0.995500
-20.682100	0.976500
-9.556367	0.430900
-17.988767	0.941800
-16.382533	0.841700
-20.498683	1.088000
-18.414883	0.983600
-16.802633	0.908300
-22.113983	1.359200
-11.121750	0.708000
-18.474683	1.103900
-20.080567	1.233700
-15.920100	1.089900
-16.464333	1.193600
-10.578100	0.862200
-11.822400	0.957900
-16.856050	1.252500
-15.301367	1.159600
-12.501317	1.015900
-4.442633	0.653300
-7.484700	0.825900
-5.923350	0.748500
-10.081783	1.010600
-9.113050	0.971100
-8.763483	0.926900
-12.241433	1.180400
-3.230000	0.678600
-16.490667	1.513000
-9.263533	1.096700
-8.118383	1.051700
-1.048183	0.616700
-2.491100	0.767400
-9.335850	1.195500
4.023933	0.429100
-6.600933	1.050200
-8.106000	1.211100
-3.468400	1.024800
-11.301600	1.507800
-1.441600	0.959400
-9.271683	1.427600
-5.802800	1.225200
1.585400	0.842400
-1.776817	1.159900
2.315250	0.939600
2.897750	0.931800
6.070967	0.747500
1.155633	1.036300
-7.685400	1.582200
1.797933	1.170400
4.971000	0.982800
-1.448617	1.367500
6.968133	0.878500
6.261117	1.020800
4.633867	1.091900
12.420083	0.700300
9.606917	0.854300
11.384700	0.757800
3.534117	1.218800
7.414333	1.075300
15.377500	0.631200
15.003350	0.736800
12.494450	0.878700
12.434150	0.863400
5.397767	1.286600
11.791600	1.029600
13.087967	0.964100
15.534450	0.838200
15.386583	0.841900
9.924050	1.212300
19.154183	0.747100
14.432100	1.038300
14.487167	1.078100
13.851133	1.129900
15.150133	1.059100
23.122083	0.601300
18.732150	0.979800
18.275700	1.015200
21.212867	0.853400
27.201567	0.490400
20.491100	0.935700
22.039117	0.856400
15.770017	1.260800
16.529433	1.211200
19.716283	1.072000
16.080033	1.299100
32.060150	0.460500
21.694350	1.098900
19.871517	1.270400
25.919467	0.911600
29.107683	0.733300
24.529917	0.992600
26.790167	0.947900
25.277850	1.080000
30.931600	0.785700
34.038683	0.602800
28.429483	0.927400
27.307850	1.011300
32.054217	0.734000
28.613967	0.965900
21.848900	1.371300
32.327083	0.801100
31.121650	0.869700
31.720700	0.838200
28.016000	1.063200
33.267583	0.909700
36.753033	0.713800
23.499283	1.504900
25.064400	1.413600
25.723133	1.494700
30.113967	1.274300
28.516850	1.424100
29.618483	1.373200
27.142567	1.536800
34.947100	1.082700
36.459317	1.086200
34.761983	1.233100
36.817250	1.143300
42.409033	0.843100
35.993917	1.215800
42.709717	0.825800
49.303867	0.526100
47.798250	0.631500
48.261033	0.605800
42.475400	0.946800
44.814750	0.827700
47.367517	0.760400
48.374133	0.697000
46.703650	0.838200
48.122100	0.747600
44.614567	0.942500
43.039467	1.042700
45.428067	1.017800
52.241600	0.645300
49.938150	0.790200
45.843833	1.014100
51.805300	0.784500
47.295017	1.084700
48.011033	1.087300
43.074717	1.343600
37.786583	1.656400
44.807283	1.265800
49.871633	1.034500
52.788917	0.922700
55.503933	0.784900
51.298617	1.052300
58.010017	0.638900
54.600250	0.840300
45.420600	1.388400
50.091717	1.246700
51.679033	1.177900
55.210483	0.980200
56.741550	0.910200
54.524367	1.033100
53.582283	1.098700
54.825833	1.144000
46.625983	1.629700
53.851900	1.233000
46.742617	1.632200
46.069017	1.825100
57.282250	1.192200
56.846367	1.257800
64.135533	0.821500
60.059783	1.066900
66.509700	0.676200
54.520483	1.484800
58.916383	1.269400
65.849883	0.906400
63.159683	1.048000
59.246700	1.285800
68.564533	0.735100
58.976367	1.338200
67.584350	0.920400
68.022500	0.869700
62.172417	1.234700
63.717383	1.178800
65.973567	1.159400
69.690117	0.964100
76.403967	0.602900
71.249100	0.886800
67.350767	1.107200
68.059417	1.077800
70.226817	1.073300
77.665317	0.632300
82.251300	0.349500
67.212533	1.240000
64.044150	1.457100
63.765283	1.458400
63.115550	1.485900
68.697900	1.191600
66.748500	1.564200
72.749767	1.232600
77.662433	0.967600
80.058833	0.834100
72.615267	1.279400
70.951083	1.345600
71.481383	1.320700
72.774150	1.263000
74.579733	1.159900
75.526250	1.093800
76.471383	1.042300
79.070050	0.888300
70.572083	1.556800
88.004383	0.690700
86.222200	0.781500
78.895417	1.215800
76.373917	1.366700
73.507567	1.536800
79.228833	1.221100
78.873850	1.414200
84.231867	1.105700
91.183483	0.693400
89.545817	0.791900
87.436583	0.973900
88.564133	0.936100
82.335533	1.352200
81.718350	1.395600
75.817833	1.784800
80.667633	1.506100
77.192650	1.852200
79.769217	1.742300
98.277983	0.641500
90.100133	1.134700
98.297800	0.624600
90.818583	1.075300
89.978850	1.121400
95.674650	0.775200
95.734133	0.752200
83.429850	1.485900
88.502967	1.359200
92.438033	1.297600
96.254750	1.077000
90.067550	1.448400
92.218650	1.305900
92.567933	1.310200
86.541083	1.658500
88.125133	1.556200
93.714833	1.299700
94.235883	1.504300
95.914217	1.414400
102.261717	1.042400
99.626867	1.217300
99.343783	1.392100
104.191750	1.083000
100.082483	1.327300
103.521517	1.126700
108.874117	0.911600
103.165117	1.258400
104.757783	1.150300
96.217750	1.662000
93.562067	1.855700
95.804817	1.712900
109.727917	0.893300
104.679100	1.206600
104.481017	1.218800
101.454350	1.386300
104.456167	1.426400
113.890267	0.992000
112.478233	1.079500
110.510467	1.169300
113.587517	0.980600
108.524267	1.288700
113.061950	1.044000
112.508917	1.095800
114.944400	0.955500
115.977833	0.898000
115.819350	0.885900
116.423867	0.918800
114.680650	1.039500
105.476667	1.593500
115.638750	1.002000
121.461633	0.646300
120.266017	0.720800
123.020267	0.728300
114.804400	1.224600
117.112767	1.105700
119.910317	0.934700
108.965683	1.584700
118.072983	1.037500
114.028417	1.281200
123.365867	0.758000
120.245850	1.218900
120.087000	1.290600
121.270783	1.221100
125.276033	0.994900
129.784300	0.726300
127.551617	0.869000
130.143167	0.688700
121.083667	1.226300
131.036950	0.859200
130.555017	0.950300
127.765067	1.127000
126.281500	1.249500
137.419917	0.622100
125.710617	1.345400
132.807617	0.931100
124.462500	1.405500
134.254517	0.822500
131.112850	1.012800
131.748733	0.965800
129.541317	1.270700
137.494217	0.830900
137.225867	0.820100
132.461150	1.090800
135.595517	0.911600
128.541600	1.315500
138.300883	0.737500
126.937000	1.413900
133.159233	1.273900
138.027950	1.041600
127.432767	1.690100
132.835933	1.373200
135.712067	1.247300
134.457133	1.291900
137.928200	1.092000
137.796733	1.089400
140.568900	0.990900
146.129883	0.724000
139.095500	1.141500
138.856733	1.158700
139.284800	1.153500
133.707233	1.507600
136.793817	1.328000
137.039567	1.342400
144.166667	0.909500
142.283283	1.044100
137.914267	1.364600
140.553100	1.481400
147.119800	1.112700
152.814117	0.752300
149.451750	0.964800
138.400467	1.631600
144.714417	1.269200
149.733450	0.968400
141.923067	1.445900
148.528883	1.341700
150.030933	1.274800
156.437250	0.905100
148.538433	1.386100
156.387317	1.034000
151.017650	1.375500
162.658667	0.750800
164.173217	0.637100
156.846483	1.063000
154.956667	1.161500
151.571650	1.459200
151.726950	1.527900
157.853733	1.165300
158.903067	1.096700
154.193317	1.382900
148.658017	1.713800
153.096750	1.529700
153.662200	1.625700
159.895800	1.248000
157.614683	1.385500
158.729633	1.302400
158.563267	1.442300
155.169850	1.693800
157.697000	1.539300
168.431300	0.899400
163.746450	1.182300
166.041850	1.033200
164.327467	1.196000
165.897133	1.099600
167.184867	1.040000
162.492017	1.325300
173.004233	0.742900
163.100483	1.363300
165.430300	1.273500
167.377033	1.148800
166.495283	1.198900
162.121350	1.446600
161.704550	1.623300
164.392750	1.529400
169.382767	1.257800
166.197900	1.468200
163.182317	1.685600
163.715517	1.670600
164.158750	1.733100
170.941717	1.443800
168.863300	1.588200
168.597750	1.610100
164.751167	1.848500
176.916700	1.171200
177.439200	1.151400
171.889150	1.496400
178.923683	1.097800
172.931867	1.454600
178.194783	1.133800
178.085300	1.347000
178.588733	1.312900
174.464767	1.562000
177.502167	1.410200
178.342950	1.485600
178.662433	1.493800
173.127483	1.859500
178.708450	1.517700
183.088683	1.272100
180.083517	1.443500
177.264083	1.687900
180.201467	1.561400
174.774350	1.892400
182.954600	1.415100
176.234850	1.863000
178.371817	1.769300
185.234633	1.368700
187.624200	1.231200
179.721250	1.712400
176.989600	1.877700
177.261783	1.890700
176.373167	2.136500
182.080133	1.827700
186.381200	1.579800
190.597717	1.359800
189.065417	1.455200
191.866950	1.274700
187.325883	1.768900
197.108700	1.185300
192.300017	1.475600
193.162867	1.408700
184.418250	2.069400
188.658983	1.865500
194.315867	1.526000
190.183317	1.762100
195.453350	1.443600
191.281817	1.692500
197.050150	1.503600
192.804917	1.814900
197.742517	1.534700
203.541683	1.200100
205.715267	1.055600
204.001333	1.141900
198.058717	1.502300
206.257333	1.008100
197.219617	1.570100
201.092833	1.423000
198.333500	1.594200
201.762033	1.409200
196.790367	1.715000
198.705117	1.606100
199.636083	1.576000
196.129250	1.809900
196.119633	1.886500
201.040717	1.834700
208.236850	1.448100
203.333417	1.743800
203.194483	1.757500
205.939400	1.732500
201.781783	2.002600
210.017267	1.532900
208.325450	1.646700
210.336033	1.535800
206.269967	1.768100
215.275350	1.406700
210.335833	1.720000
209.800800	1.738800
217.857883	1.246000
212.940550	1.601700
217.431483	1.348900
208.662083	1.870000
215.084350	1.499100
218.574617	1.275800
216.477617	1.406300
210.929167	1.724600
209.710433	1.809400
212.516783	1.650100
211.931050	1.685100
208.783083	1.930300
216.713000	1.727400
215.875350	1.789500
213.139850	1.967100
217.906583	1.709800
218.333900	1.672500
214.168650	1.937400
225.586417	1.463900
219.105900	1.867500
218.248983	1.921000
226.345650	1.425600
224.412067	1.520000
224.922133	1.505200
223.431967	1.592900
222.435300	1.646700
233.999367	1.074200
224.755900	1.650600
227.427750	1.488600
222.829533	1.769800
224.983733	1.749400
225.051433	1.800400
219.747633	2.091700
221.124783	2.066800
231.664067	1.441400
233.880650	1.332300
230.456450	1.587600
235.068783	1.482400
230.346900	1.797000
232.635450	1.666200
238.634450	1.306200
227.537883	1.971100
231.407217	1.775000
232.215433	1.726300
232.585517	1.720100
240.390333	1.535200
241.857883	1.487800
237.601450	1.716300
238.990833	1.636900
247.137600	1.161900
241.706950	1.486500
241.776183	1.507300
240.804667	1.574300
237.703033	1.864900
242.599950	1.584900
246.141267	1.388900
246.377350	1.371900
244.509817	1.594100
243.664717	1.689800
242.831650	1.759200
243.133300	1.729200
243.691167	1.673900
242.153667	1.792100
246.464250	1.536600
247.455133	1.490200
243.075933	1.914700
250.232283	1.645300
250.695633	1.633300
246.446933	1.893700
246.029267	1.923200
248.890817	1.776500
241.392150	2.229300
255.691383	1.472800
261.873883	1.120000
250.484200	1.815000
258.905650	1.335300
258.129117	1.385300
251.137517	1.804100
253.822533	1.676200
261.434200	1.236000
250.911233	2.021800
261.950150	1.374900
257.314633	1.652200
259.990733	1.507300
257.173067	1.848500
261.394017	1.671500
259.470600	1.790700
258.641450	1.867500
261.343283	1.713100
262.449567	1.639700
265.266183	1.579000
264.951883	1.690300
264.783533	1.678900
262.706183	1.825600
264.230450	1.738200
261.795650	1.900500
269.135733	1.461100
265.512850	1.680300
271.083550	1.387200
273.286950	1.329900
266.175867	1.738700
261.730550	2.011200
259.686033	2.163700
271.272317	1.487600
277.252700	1.121400
266.167533	1.774000
273.063283	1.378000
280.606300	1.052700
267.301183	1.844500
273.946583	1.482700
271.729900	1.626600
268.326383	1.922200
265.979700	2.064300
270.478983	1.829800
270.854833	1.836100
281.239617	1.388900
280.083417	1.485500
272.897967	1.924700
278.753467	1.594100
279.026450	1.674600
279.570883	1.721200
272.781067	2.159900
272.993400	2.142900
282.319533	1.592500
276.979617	1.910300
280.529733	1.727200
285.122150	1.531800
284.213917	1.604000
282.014000	1.739700
285.215067	1.550600
284.231267	1.621400
280.981850	1.835400
279.274167	1.953800
286.204983	1.537900
288.320533	1.707700
295.766750	1.255800
290.081617	1.592900
291.661200	1.506300
293.761083	1.492300
286.526100	1.976400
290.411650	1.764300
291.842917	1.676000
289.707483	1.781500
287.271933	1.950700
302.224133	1.207600
293.467500	1.789500
290.518700	1.976400
298.522317	1.507700
296.654550	1.611600
296.538517	1.621400
293.746550	1.810500
290.038550	2.030100
297.060533	1.704100
300.779817	1.696700
293.125483	2.180200
298.261450	1.881900
303.418783	1.578400
308.410533	1.245700
302.319400	1.587300
306.478167	1.329500
302.802667	1.545500
304.594950	1.741200
300.807933	1.986400
301.571850	1.955400
306.514483	1.654000
300.441067	2.182700
313.001433	1.436800
306.766867	1.823600
308.742683	1.702900
308.442467	1.718600
306.255717	1.855700
311.423833	1.581700
311.661683	1.600900
307.896683	1.822300
312.160883	1.571200
316.840700	1.285500
319.380133	1.149400
307.069850	1.877700
305.105200	1.982700
311.834167	1.742300
317.303733	1.613800
312.697700	1.914600
317.784917	1.611800
312.400867	1.937000
313.579183	1.890400
314.282583	1.837000
319.369517	1.541600
312.530750	1.945800
317.900933	1.948000
319.949700	1.836000
320.021300	1.831200
317.514933	1.996300
324.794883	1.668400
314.984583	2.266300
313.561767	2.378900
316.875217	2.200400
320.251700	2.064900
326.290600	1.721400
321.805633	1.975600
316.907967	2.304800
328.854533	1.637200
321.943383	2.050300
326.305450	1.782300
328.530267	1.646600
331.577867	1.450400
328.316183	1.647100
325.177567	2.201900
327.113717	2.114000
329.547600	1.990800
331.650900	1.883700
334.553083	1.729000
339.711533	1.510900
334.973233	1.801000
327.179033	2.275300
338.823750	1.589100
334.309633	1.884700
326.591250	2.372100
329.971850	2.322000
333.496467	2.159900
332.140367	2.257400
338.354683	1.900900
340.202150	1.842600
335.892483	2.096200
334.066300	2.214300
327.443583	2.626300
340.137983	1.944100
335.326967	2.251100
336.867283	2.165500
338.024417	2.099300
336.632133	2.318200
337.566017	2.312000
343.172000	1.977900
336.926833	2.372200
340.667317	2.147300
341.165433	2.132200
336.182633	2.431900
341.118517	2.160500
343.441133	2.117200
345.722783	2.169700
351.306400	1.884600
358.770767	1.457600
347.795633	2.116900
352.872650	1.826100
349.647083	2.013100
346.946100	2.189400
353.389483	1.809700
347.504167	2.140700
347.775433	2.147200
352.786517	1.826900
352.711583	1.825600
346.864083	2.179300
357.441317	1.549100
354.894083	1.992700
349.338533	2.381500
358.924250	1.822500
351.321967	2.282300
348.165650	2.503500
354.488167	2.159900
353.500200	2.208300
359.099733	1.884700
362.147300	1.964100
365.469950	1.782900
378.411683	1.037500
371.821017	1.421000
368.043800	1.672500
369.728683	1.642000
353.600050	2.613000
360.316633	2.262700
361.483817	2.227400
366.891300	1.900500
370.778633	1.647400
371.532200	1.612800
367.669550	1.854300
369.582100	1.726800
363.904717	2.057300
358.386767	2.665400
367.921033	2.119600
370.780050	1.963500
367.618333	2.155600
363.550467	2.547500
370.749383	2.132800
368.872983	2.252200
372.088917	2.079800
375.297333	1.878400
371.462417	2.137700
377.618050	1.764600
380.815333	1.578400
384.445317	1.682600
371.550750	2.463600
379.151333	2.038900
380.954767	1.908800
377.792867	2.221400
374.986767	2.419700
387.298283	1.702900
381.148500	2.055000
380.119617	2.121500
383.105117	1.943600
388.233567	1.631900
389.018567	1.574300
383.539117	1.958000
390.379617	1.769600
389.456167	1.837400
393.929417	1.560800
387.879467	1.943600
392.929467	1.756100
391.307433	1.858000
388.033217	2.085500
394.516783	1.699900
394.908183	1.666900
385.487400	2.228100
385.931000	2.398200
390.366450	2.146200
387.370950	2.330100
397.612400	1.716600
394.298133	2.041900
401.944250	1.615800
400.507267	1.705400
401.344900	1.643100
402.776183	1.548700
396.850217	1.887800
393.948833	2.143600
400.547200	1.890300
408.929017	1.385600
404.578717	1.650500
394.854283	2.242900
401.544400	1.892700
401.954583	1.859200
394.790067	2.308400
400.137167	1.986800
398.860950	2.075400
402.850183	1.854100
407.525067	1.747700
404.447033	1.959700
401.863300	2.107500
403.302333	2.013100
396.572250	2.430900
410.630867	1.586900
403.751600	2.177700
402.936967	2.283500
406.656567	2.091200
412.358350	1.763400
403.959067	2.272700
407.741967	2.037800
403.549100	2.288400
407.030717	2.100800
403.778167	2.384000
404.614400	2.390100
411.591600	2.003400
407.561500	2.242500
405.534950	2.359200
409.651300	2.108100
412.213333	1.970200
410.169600	2.100900
405.739300	2.394600
411.713567	2.149400
408.230750	2.382000
402.160400	2.782800
407.704250	2.462400
413.592700	2.247300
418.877300	1.983000
419.599583	1.956400
422.122067	1.838000
416.174133	2.200000
416.713567	2.177600
419.809450	2.184000
416.635750	2.436900
418.129250	2.340000
424.897817	1.951700
424.764900	1.964100
417.794917	2.401700
418.237567	2.386100
418.518033	2.389000
423.065583	2.355700
425.547733	2.297500
435.233367	1.735100
425.913100	2.312700
424.803900	2.369700
425.936367	2.323100
434.239833	1.820800
437.717133	1.620700
427.245017	2.316200
432.473100	2.211000
439.793983	1.790200
438.555750	1.858200
439.732250	1.812000
435.283733	2.205700
435.981100	2.175000
438.449667	2.029100
432.174617	2.425400
439.929383	1.992700
436.401400	2.228100
426.685067	2.810300
434.984233	2.324800
439.274733	2.077300
436.452333	2.230600
444.803850	1.885800
441.878767	2.110100
436.493133	2.449900
433.548500	2.620200
431.467533	2.766700
436.915817	2.455700
434.336917	2.616200
428.890567	2.930600
447.590767	2.159900
445.235033	2.287000
450.505950	2.008200
448.338850	2.164500
452.867383	1.930000
451.121667	2.057300
456.109967	1.756400
450.245600	2.097600
443.854483	2.504500
457.492450	1.755600
455.901767	1.836200
451.492517	2.090300
452.762967	2.030000
451.221917	2.169800
451.335383	2.173600
447.885800	2.440500
453.963633	2.080900
451.210450	2.256300
452.940433	2.145700
453.046450	2.277900
454.175633	2.206300
455.016867	2.183000
455.983233	2.144500
446.364067	2.806100
454.365433	2.410000
457.301883	2.306800
463.335617	1.943300
456.584650	2.369700
459.451433	2.179600
459.616050	2.216100
460.299767	2.212400
460.311017	2.219600
462.240533	2.161300
457.977750	2.447700
460.099433	2.336200
457.831117	2.505200
454.766100	2.836500
458.308450	2.656200
453.985483	2.968600
460.437300	2.606100
464.076417	2.431400
462.433883	2.551900
469.649700	2.278800
466.401600	2.468100
464.338233	2.612200
469.583133	2.321500
463.307500	2.818800
463.886833	2.828500
485.720667	1.568300
477.625933	2.080300
477.849417	2.060300
470.276500	2.503500
471.878017	2.528600
477.743550	2.207400
471.062717	2.647700
468.970233	2.787400
476.869200	2.325000
473.408267	2.515400
474.878833	2.463400
473.987633	2.565100
471.846950	2.694900
483.926983	1.994500
477.212150	2.422200
476.752500	2.511300
484.519900	2.084100
482.998917	2.202800
475.649667	2.658200
465.232000	3.313800
479.995167	2.465900
476.932483	2.777500
488.520767	2.131100
485.090550	2.388600
490.154783	2.102200
493.757233	1.889800
490.476733	2.068000
493.503400	2.044500
486.334167	2.467400
489.423933	2.280100
489.401067	2.305400
492.702217	2.168000
493.649767	2.170400
485.315083	2.702500
485.784400	2.723100
490.245417	2.459900
481.623783	2.989300
491.001983	2.462500
491.905583	2.514100
486.961900	2.830500
491.893700	2.592600
500.117133	2.100700
499.175533	2.144200
488.445750	2.796000
500.610833	2.183500
495.000767	2.548100
493.030250	2.665500
490.636700	2.827500
499.318783	2.457100
496.841500	2.644200
497.296183	2.582500
502.170633	2.304700
497.803733	2.567500
488.132133	3.162400
503.677317	2.312000
500.933450	2.498700
495.699817	2.850200
497.692167	2.713400
501.438300	2.547300
501.288750	2.581500
499.587917	2.719400
494.639150	3.030000
495.279517	3.017900
504.094283	2.518900
497.775567	2.924300
499.454250	2.848800
497.345433	3.015700
510.200450	2.339400
503.234600	2.753400
501.285917	2.902100
505.045950	2.705400
503.540033	2.784700
509.837500	2.418000
511.286050	2.331300
509.768950	2.435100
500.747033	2.986000
513.769500	2.245500
504.110550	3.133200
504.273900	3.168900
515.228217	2.527700
515.427850	2.521800
515.913350	2.574300
511.098750	2.886000
515.824783	2.600500
514.375750	2.707500
523.318400	2.280900
520.483067	2.480900
523.039833	2.378800
519.276767	2.626700
518.604983	2.623000
519.119700	2.608200
519.543167	2.597000
510.357100	3.151800
520.974417	2.544800
524.428767	2.362400
520.962917	2.627600
525.714733	2.583400
528.684200	2.436600
522.998517	2.778800
524.686817	2.688800
524.143633	2.739700
516.413767	3.207500
524.993617	2.789300
525.255267	2.775800
527.798933	2.668000
530.132467	2.563400
531.958283	2.451700
532.832450	2.411700
532.142500	2.447100
533.404367	2.378000
540.166500	1.993200
533.313750	2.392800
535.996417	2.342600
533.991467	2.507300
533.158183	2.569000
529.530150	2.804700
533.171000	2.607000
533.768550	2.586300
539.947067	2.322500
534.554417	2.751200
538.977683	2.526400
531.680767	2.962400
529.753533	3.154900
541.037167	2.591300
539.301350	2.697300
533.368600	3.048300
536.511317	2.953400
541.310033	2.743300
534.381150	3.180300
535.082600	3.162600
542.040517	2.768300
544.977150	2.623800
543.953900	2.684400
538.525300	3.071400
548.521617	2.471600
542.209833	2.854000
536.487883	3.214600
538.382300	3.201900
540.735033	3.087400
550.655967	2.520500
546.269033	2.787100
540.541983	3.270400
545.995800	3.001800
542.549383	3.215200
549.464750	2.825700
552.205350	2.681400
543.483950	3.185700
558.078383	2.558500
553.491683	2.813800
555.062750	2.747400
553.800450	2.804400
556.496583	2.690500
557.994450	2.641200
561.017767	2.468600
553.003050	2.973300
561.719533	2.455900
554.387050	2.917200
558.927167	2.699000
562.053000	2.623800
562.306767	2.623100
560.387333	2.770000
559.712883	2.793100
553.158550	3.211800
548.386450	3.509400
555.631050	3.326400
559.402717	3.109700
571.032800	2.402400
566.458967	2.685800
562.007717	3.060800
567.736767	2.744900
566.190233	2.851000
567.223417	2.797700
553.729600	3.609600
565.533417	2.925200
566.161567	2.884700
561.978050	3.170100
565.244367	2.970500
574.844567	2.399300
568.486967	2.841800
574.042217	2.583500
575.272317	2.549600
575.211883	2.561800
570.232933	2.891200
572.123583	2.805400
570.475833	2.954200
579.576200	2.587500
581.959500	2.457600
572.191533	3.032500
575.407283	2.832100
572.070817	3.027500
575.253150	2.846400
576.951067	2.947700
581.774767	2.652200
579.643750	2.777100
574.087600	3.118500
574.684450	3.209700
579.887900	2.934300
586.917267	2.521100
577.472450	3.098400
584.101500	2.716500
580.295283	2.932000
587.520233	2.587900
583.221183	2.862100
581.906217	2.954900
579.494050	3.094200
585.009017	2.822300
585.256083	2.833300
577.562300	3.313800
590.408483	2.554600
584.279050	2.927400
586.492650	2.793000
584.632917	2.930900
590.658467	2.657300
580.707167	3.287600
587.712917	2.850800
597.697033	2.267800
588.775500	2.807700
587.944533	2.873200
599.903767	2.389700
600.226333	2.373700
598.225800	2.518200
591.519250	2.934300
594.875250	2.881800
609.087583	2.075200
603.589033	2.397700
602.717267	2.459300
596.027550	2.836500
601.617950	2.504700
598.322000	2.910000
604.621933	2.566000
603.043167	2.643800
596.999083	3.022900
595.262533	3.217300
607.970867	2.557100
601.372617	2.980100
603.733433	2.851600
601.349250	3.010500
602.388867	2.953700
601.163767	3.080600
603.866433	3.103300
605.040100	3.024600
613.698400	2.514000
614.342767	2.480900
615.497600	2.543700
613.475117	2.685800
608.270217	3.008600
607.086650	3.079800
610.403700	2.891100
612.614233	2.787100
610.804850	2.959800
608.484683	3.118600
617.306833	2.604400
621.634717	2.363600
620.340017	2.522900
621.643450	2.492700
614.169450	2.978100
622.101367	2.494400
626.911950	2.211600
608.490333	3.309400
609.447550	3.356700
616.956150	3.020100
612.544300	3.288900
614.705467	3.163700
613.424417	3.266300
612.376467	3.362600
610.098467	3.566300
621.378750	3.050100
625.495300	2.820000
621.032600	3.086100
620.643233	3.141100
624.632367	3.053900
616.117867	3.560300
612.581250	3.814200
623.065017	3.177500
622.496150	3.204000
615.584883	3.606700
625.304567	3.146000
624.145133	3.218800
630.113717	2.854400
628.324950	2.960700
630.741917	2.921300
626.622433	3.206500
624.665067	3.329600
632.021467	2.894900
633.076567	2.829500
634.519917	2.729000
632.403583	2.953900
637.408667	2.761100
638.863167	2.682200
630.552533	3.187900
627.391017	3.409100
632.617000	3.096900
637.302383	2.851600
632.476900	3.243300
637.585883	2.933200
629.917417	3.417500
641.847767	2.732000
636.713300	3.096000
638.725017	2.984300
631.472650	3.433200
640.413867	2.924300
635.536433	3.238000
641.067083	2.921800
636.647983	3.360400
639.778533	3.208900
642.868350	3.057600
645.600900	2.919300
648.401850	2.783700
650.758667	2.678900
653.582883	2.530600
643.340817	3.110600
646.299500	2.950500
648.183817	2.841800
645.617683	3.098800
638.424350	3.741300
645.405583	3.370000
649.123033	3.162400
652.448783	2.953900
644.142133	3.437500
654.441867	2.828900
652.094117	2.975000
656.371800	2.728800
665.084367	2.468900
665.701100	2.469000
654.217350	3.150900
649.976683	3.410500
654.441617	3.287300
659.789700	3.008700
647.274967	3.766400
658.029267	3.147500
660.658417	2.998400
659.531650	3.081900
662.881217	3.025700
664.671083	2.977600
669.504650	2.682300
670.049900	2.650200
661.663717	3.146000
659.222367	3.318500
666.055283	2.899900
665.676617	2.895800
666.957533	2.934100
670.153883	2.944600
671.215483	2.897500
669.648767	2.993900
666.640317	3.176600
662.222600	3.450900
668.724483	3.044800
666.746667	3.177500
667.526717	3.209600
666.210883	3.520300
673.001117	3.125900
667.655650	3.478800
673.054533	3.162400
674.444683	3.084100
670.439000	3.312300
675.714567	2.992100
668.669383	3.434800
676.187783	3.238000
676.420783	3.286900
680.118367	3.092300
676.854417	3.309200
680.532367	3.112400
677.232317	3.319700
676.001650	3.415200
686.681267	2.778200
681.634733	3.098800
678.561250	3.245100
690.842467	2.651300
685.158433	3.120100
682.121667	3.317600
689.184350	2.897700
687.094550	3.030600
690.647250	2.842500
691.148550	2.822400
692.899533	2.702800
684.984050	3.222600
690.680833	3.164500
689.803100	3.218100
689.371783	3.250300
691.707333	3.117700
687.245267	3.542900
694.742117	3.086000
693.842733	3.130600
693.816750	3.157200
698.592833	2.992300
700.152267	2.923400
699.441850	2.973600
684.214417	3.882500
683.881417	3.944000
687.297317	3.732800
685.822967	3.846200
693.868067	3.369200
697.159217	3.164900
692.765217	3.422900
696.883633	3.282400
701.508250	3.030600
702.127300	3.011100
701.433650	3.052200
695.552667	3.444500
698.838133	3.327400
696.078917	3.522800
702.692783	3.164200
707.096667	2.906300
702.903767	3.222500
711.584917	2.727200
701.484767	3.358700
703.121533	3.277600
706.576150	3.080100
701.433617	3.400400
694.832217	3.844400
708.043250	3.051600
708.310017	3.056300
708.194183	3.065200
706.968333	3.284200
700.811683	3.700300
700.785283	3.746500
702.920533	3.660700
705.717267	3.531500
710.613217	3.242900
700.818417	3.856700
710.409250	3.317100
713.993883	3.240400
715.150800	3.184800
706.800033	3.729400
718.707283	3.067000
720.807400	3.000000
710.383067	3.723500
713.787383	3.545500
724.123067	2.939900
715.281883	3.485200
719.731817	3.338000
720.391167	3.308600
713.770667	3.742400
721.793417	3.284000
716.456850	3.612300
721.217850	3.371100
712.385733	4.013200
718.656433	3.672700
723.897083	3.381100
728.666517	3.104900
728.343867	3.147200
728.512533	3.139000
727.300000	3.370800
720.063567	3.814100
728.581767	3.327800
735.662917	2.944700
726.065317	3.736100
729.178583	3.543400
728.335667	3.626300
735.803083	3.168400
730.746867	3.564800
738.308800	3.148500
735.468700	3.354900
735.333400	3.363000
734.871583	3.391600
725.505800	3.978000
730.083633	3.736900
734.424717	3.489800
734.669867	3.606800
734.377950	3.840300
730.346200	4.119900
738.980750	3.628500
739.816833	3.587500
738.985633	3.779800
747.335267	3.294800
747.251883	3.283000
749.848750	3.103200
742.706600	3.672600
742.495800	3.706200
743.145783	3.697000
746.696367	3.492200
752.658083	3.311200
746.930350	3.653400
750.489800	3.454800
743.772467	3.841400
758.434200	3.085500
761.042333	2.974000
748.349550	3.757200
752.902250	3.472500
749.565517	3.663200
755.143683	3.346900
748.610333	3.726700
757.164967	3.220100
763.205283	2.849500
755.416150	3.308100
749.628500	3.681900
758.704283	3.464200
760.911800	3.362100
761.758900	3.306000
762.139367	3.266600
759.978400	3.532800
761.534467	3.471200
756.652633	3.770500
760.788483	3.513100
761.245483	3.622000
760.115300	3.709500
770.103683	3.109600
764.860867	3.414500
775.313300	2.950200
766.453650	3.451500
771.084600	3.183900
773.731717	3.022100
767.480567	3.495200
768.896550	3.474300
768.480850	3.501300
775.828067	3.063200
773.175250	3.212700
772.764650	3.238200
769.917167	3.422900
772.261467	3.287300
772.569733	3.246400
771.396767	3.339500
766.829550	3.649500
774.238333	3.342100
778.218250	3.111000
779.806050	3.041100
774.727550	3.349500
778.431717	3.218300
769.256167	3.760400
773.348417	3.548300
777.889250	3.292200
776.667583	3.398800
774.261133	3.546400
774.851150	3.529200
772.262633	3.707200
783.504950	3.339000
783.265600	3.355200
783.413517	3.386000
777.112983	3.817300
781.267200	3.672600
784.494150	3.535200
778.077983	3.927100
783.603083	3.614500
784.619833	3.597100
783.081017	3.692600
783.596500	3.681000
788.281517	3.418700
792.531317	3.217700
787.850050	3.570600
780.870683	4.018600
784.708417	3.808700
793.001517	3.323600
786.939217	3.697100
795.812350	3.192300
792.019517	3.405200
789.803433	3.570400
790.693083	3.804400
791.604800	3.762300
787.863067	4.020200
797.412017	3.461600
794.277367	3.651800
794.300583	3.648100
799.733750	3.339000
791.938483	3.805900
793.004317	3.875600
805.904617	3.129500
798.002450	3.635100
797.970950	3.655500
805.265383	3.352300
792.605683	4.135000
788.105733	4.429300
790.350767	4.334300
800.874350	3.730200
802.575267	3.661700
792.481017	4.412900
796.639217	4.243400
815.229983	3.172600
807.300450	3.647400
803.821017	3.919400
805.247833	3.946900
805.055550	3.971700
804.682783	4.014400
795.291400	4.593600
804.301683	4.085800
805.641767	4.007000
802.643983	4.375900
812.735867	3.806000
813.377067	3.784700
809.785067	3.995000
821.824783	3.300400
819.552417	3.435200
815.995500	3.691500
817.819567	3.581600
817.151933	3.662800
809.450983	4.150600
814.258150	3.985800
816.977517	3.877700
811.780033	4.223200
823.867133	3.511300
823.465233	3.534100
825.808167	3.406700
820.157283	3.753400
825.501667	3.459500
822.368550	3.649500
825.971150	3.449100
826.956033	3.526300
834.937417	3.217700
828.222700	3.633000
828.580200	3.618000
828.425283	3.653500
831.238117	3.650300
821.485233	4.220500
819.997883	4.315600
832.391433	3.599200
834.031667	3.548900
832.191583	3.680200
836.958900	3.389100
834.369050	3.531900
829.578383	3.804100
834.659800	3.506100
832.467033	3.646900
835.152383	3.475300
829.161650	3.864900
828.219517	3.913700
824.014933	4.520200
832.326833	4.066600
839.760783	3.656200
835.667600	3.912300
847.206833	3.350500
843.919050	3.553800
851.655467	3.104000
847.757267	3.321500
840.642750	3.771900
839.214567	3.980900
840.619800	3.922200
838.361383	4.107400
828.992983	4.686700
835.212917	4.338800
839.974217	4.105400
847.715450	3.650400
851.694183	3.413800
836.042250	4.344600
846.416567	3.749900
847.658717	3.768200
847.502550	3.822900
847.022100	3.876600
850.923517	3.661700
843.906983	4.081900
848.191217	3.866600
840.960050	4.307400
855.801050	3.435300
850.000450	4.016700
850.923400	4.044600
859.002567	3.572600
861.227717	3.446300
855.062100	3.818700
857.170517	3.682400
855.737783	3.905200
852.615167	4.164200
865.446017	3.429200
866.535483	3.358600
857.770817	3.879500
854.795983	4.063900
854.237050	4.120200
862.904283	3.656500
859.240150	3.883500
858.240300	3.964800
855.805633	4.147000
857.448833	4.196200
865.324000	3.753600
857.376150	4.224600
860.222933	4.095700
862.327467	3.998300
865.562633	3.797200
862.428800	4.006800
866.182717	3.798500
861.824183	4.063900
869.939417	3.594800
870.116783	3.807700
874.970433	3.606400
878.902517	3.411200
871.402600	3.846600
866.166583	4.168000
867.071517	4.128200
878.202767	3.743900
875.510483	3.899500
869.105433	4.306600
876.122933	3.903100
881.863100	3.655200
882.479917	3.690800
881.184117	3.796400
884.773267	3.555800
878.223300	3.926100
877.413250	3.974100
876.088617	4.052900
880.825933	3.865900
876.770300	4.143900
879.835617	3.969500
876.053167	4.196000
879.969617	3.988700
874.548117	4.324100
879.657133	4.042000
877.741950	4.185300
875.378683	4.599400
874.763633	4.681900
888.495133	3.890200
890.814583	3.739900
887.878083	3.907300
887.782717	3.929000
879.006800	4.473000
885.824500	4.096200
893.468150	3.799200
891.605783	4.018000
886.732583	4.342600
890.793517	4.115000
897.211467	3.762500
896.518183	3.792700
892.298033	4.072600
890.920200	4.147200
895.712733	3.859300
889.764067	4.221500
891.196883	4.182400
903.877533	3.721300
901.011317	3.914000
898.118600	4.080900
899.959100	4.002900
902.135383	3.870700
903.109050	3.803100
903.143183	3.789400
899.604883	3.992200
895.412367	4.369400
896.586183	4.317400
898.535917	4.209200
910.182983	3.525100
906.354433	3.819400
909.412467	3.651500
910.543933	3.614500
912.040000	3.507900
902.110817	4.124000
903.824300	4.043400
911.365550	3.697200
903.942717	4.256300
904.508100	4.260000
914.951450	3.645600
914.287117	3.679400
912.624250	3.783000
906.078650	4.242900
913.060367	3.944600
917.692933	3.678700
915.225100	3.825900
905.919150	4.432200
906.147983	4.552900
915.543633	4.020700
923.712233	3.553000
915.554250	4.034400
915.910650	3.997800
912.171150	4.236900
918.234450	4.086600
917.847400	4.135800
913.826983	4.378600
916.892517	4.210100
917.584883	4.302100
915.515450	4.483200
925.122300	3.924900
916.626617	4.439300
915.416817	4.513700
913.623433	4.624000
925.403350	4.097100
919.969733	4.463800
919.600617	4.489400
923.358933	4.273000
928.196217	4.036100
924.900883	4.346500
926.890883	4.252300
933.885150	3.834600
931.132883	4.021900
927.478533	4.219600
925.439333	4.371700
924.394817	4.525400
930.769033	4.183600
933.255583	4.053400
934.207700	3.993900
934.410067	3.992600
939.343283	3.700600
937.663333	4.010800
928.759017	4.540400
940.716200	3.856800
933.406000	4.280400
934.892000	4.345800
926.826833	4.847500
940.768167	4.027100
953.887383	3.259900
941.191883	4.030900
938.397633	4.195000
957.136200	3.285900
945.166917	3.998300
947.747083	3.848800
948.242167	3.807500
946.892917	3.947000
938.376867	4.555100
944.070283	4.223200
946.238500	4.108800
942.392800	4.341000
941.208700	4.419900
944.904150	4.248900
951.622800	4.050000
948.943633	4.206100
946.015083	4.396600
944.616183	4.493500
943.273983	4.733500
942.635850	4.788900
950.914850	4.301400
947.434217	4.525100
950.182067	4.368500
955.935233	4.019800
961.771750	3.804600
957.231400	4.151100
955.818450	4.247400
956.071350	4.228800
948.339983	4.676500
948.122150	4.718400
952.068017	4.574900
956.619850	4.427700
963.126717	4.043300
955.626983	4.484800
961.851900	4.141500
960.172267	4.376600
956.218950	4.635600
964.383283	4.153000
960.343800	4.396200
964.293400	4.177500
961.291967	4.360700
963.215017	4.450700
962.565883	4.473700
965.912067	4.270100
966.252917	4.229300
968.198350	4.248600
969.985117	4.168100
960.551017	4.718000
973.656750	3.959700
965.980467	4.389800
969.289617	4.192700
969.666933	4.339600
972.956217	4.202300
974.239117	4.079600
971.226133	4.272700
973.502067	4.155800
972.230750	4.237500
964.372333	4.825300
970.945500	4.531200
973.816267	4.373300
966.849617	4.791500
966.697033	4.871200
974.362167	4.511000
989.555933	3.626800
971.809617	4.681700
982.992717	4.003700
983.678583	3.956200
982.766783	4.028500
983.221383	4.053400
988.676100	3.722100
985.321883	3.911800
973.605650	4.612800
972.939450	4.763400
983.039200	4.176600
990.434417	3.754400
986.285717	3.992900
984.101583	4.151500
980.481850	4.386900
991.795700	3.928200
979.205650	4.682400
982.279433	4.522000
982.879350	4.518300
985.752983	4.385200
987.469450	4.277100
989.539117	4.343900
989.081833	4.379200
984.495967	4.677500
991.859667	4.236200
989.357700	4.491600
996.030450	4.220400
988.035467	4.709000
978.788517	5.278100
991.800283	4.547500
998.230300	4.146600
996.948750	4.273200
1000.478233	4.211500
998.499733	4.335100
999.819250	4.268400
987.044800	5.096400
994.955633	4.748200
993.136000	4.887300
1001.903367	4.375400
996.902350	4.671900
996.037617	4.742600
996.265800	4.738200
999.946450	4.710300
999.294133	4.750300
1004.807017	4.438700
996.079017	4.947500
1005.516100	4.527900
1009.089517	4.326500
1005.809467	4.535900
1005.953217	4.505600
999.307633	4.888000
991.930300	5.342100
1000.874100	4.899300
1000.032950	4.970100
1006.938800	4.593600
1006.961033	4.602100
1003.633883	4.824400
1008.122533	4.574200
1009.974433	4.509700
1011.635883	4.467700
1009.744583	4.603300
1011.422317	4.528700
1019.183150	4.113300
1021.732083	4.082200
1015.692667	4.443800
1013.830350	4.574700
1010.596733	4.790800
1019.287833	4.313500
1033.066100	3.497400
1022.589000	4.298400
1014.317100	4.799100
1013.993150	4.830900
1018.010367	4.606100
1017.537633	4.696900
1017.145667	4.752800
1020.106767	4.605800
1018.148217	4.733300
1019.607283	4.665100
1018.587050	4.742100
1021.968433	4.792900
1019.779133	4.954000
1018.525767	5.065700
1021.757333	4.853200
1027.172250	4.616100
1028.390233	4.634200
1036.623950	4.175400
1032.996100	4.431000
1032.121467	4.498400
1028.645000	4.702200
1031.040450	4.593600
1026.894717	4.978100
1028.657267	4.890500
1033.202233	4.632100
1037.156350	4.401600
1028.015750	4.929300
1027.171500	5.006700
1033.442567	4.733000
1031.725317	4.826600
1042.408267	4.220600
1041.390700	4.274400
1033.123000	4.903800
1033.630133	4.925500
1038.682917	4.660700
1038.365700	4.678800
1033.648233	4.972900
1034.524933	4.920400
1038.667900	4.807800
1038.576950	4.926000
1041.672067	4.743500
1048.727183	4.316500
1038.888367	4.904300
1045.171600	4.537200
1044.833900	4.551600
1049.377933	4.259200
1046.508267	4.517000
1057.418350	4.052100
1051.253433	4.437100
1049.882567	4.521500
1049.304933	4.554100
1054.310350	4.278000
1043.904533	4.906600
1045.941300	4.783500
1049.187733	4.600900
1054.435450	4.521900
1050.653183	4.836400
1056.372067	4.491800
1051.313383	4.799500
1048.969350	4.953300
1053.518000	4.701300
1055.080900	4.594200
1055.212717	4.601000
1047.241633	5.199400
1049.722350	5.081700
1060.843650	4.443000
1057.304167	4.680200
1052.767833	5.078200
1054.499567	5.059400
1053.880217	5.102000
1060.525683	4.731400
1059.734567	4.789400
1067.252550	4.350600
1059.310817	4.862000
1063.005683	4.758700
1067.288550	4.496400
1058.184400	5.042100
1062.073333	4.816300
1065.306483	4.620700
1064.200767	4.694300
1071.876800	4.247400
1065.607033	4.629400
1069.497333	4.721200
1074.554250	4.458900
1069.475967	4.783700
1071.973250	4.638600
1070.298567	4.748900
1067.866733	4.915900
1067.396050	4.972500
1068.527633	4.927900
1069.324767	5.184500
1072.389250	5.035500
1071.072417	5.143100
1082.009717	4.501700
1066.793200	5.590200
1071.825267	5.300900
1079.728383	4.855900
1072.136050	5.290500
1072.755683	5.318800
1074.757683	5.315500
1077.054083	5.203300
1083.647083	4.834300
1077.885417	5.186300
1085.711300	4.722000
1079.629183	5.103700
1084.407583	4.812100
1082.053717	4.945400
1086.220850	4.695600
1077.880950	5.204400
1084.046333	5.097700
1086.849000	4.960800
1089.877700	4.785900
1092.795650	4.612200
1080.505317	5.330900
1089.043117	4.828100
1086.814833	5.152900
1089.486600	5.034900
1083.188067	5.478500
1091.750217	5.009000
1093.211900	4.902300
1097.026817	4.688000
1105.259667	4.189700
1093.992617	4.864700
1092.472683	4.924000
1089.475817	5.136200
1092.872900	5.019300
1090.080817	5.257100
1101.063733	4.664200
1099.474900	4.815600
1092.765300	5.221500
1097.094633	4.989400
1097.663933	4.966000
1105.135867	4.534400
1104.768017	4.607600
1098.063667	5.169200
1107.025333	4.657300
1106.905117	4.670300
1105.151800	4.779600
1105.132367	4.780100
1108.357850	4.610400
1112.791450	4.568400
1106.465250	4.940700
1110.123367	4.755500
1108.330917	4.888100
1113.463483	4.705300
1112.720933	4.771900
1116.277850	4.560600
1108.479100	5.055900
1107.910983	5.118100
1106.880600	5.178900
1105.498383	5.341000
1109.107717	5.162000
1106.105167	5.348900
1116.463433	4.761400
1109.899783	5.255200
1113.100717	5.171900
1124.234483	4.520200
1118.404667	4.896500
1121.693633	4.693300
1113.446983	5.191000
1114.748183	5.185900
1123.879650	4.791600
1118.351217	5.145800
1122.928783	4.879300
1132.806350	4.302300
1123.172400	4.866900
1122.655900	4.908300
1124.167633	4.976500
1122.176750	5.102400
1125.204800	4.912200
1133.983267	4.400300
1128.160983	4.855900
1129.715417	4.800200
1124.569183	5.095600
1122.621867	5.225000
1133.955517	4.571900
1131.888800	4.683000
1121.273050	5.375100
1128.659667	4.971200
1140.336467	4.288700
1132.927667	4.729400
1136.326283	4.520200
1130.377800	4.879800
1131.884933	4.813900
1132.137450	4.808700
1136.288117	4.892600
1130.790333	5.203300
1128.997333	5.363200
1129.262500	5.407500
1140.992917	4.762100
1141.520250	4.768200
1139.817200	4.890300
1139.261800	4.929300
1139.097267	4.941500
1134.674033	5.231200
1134.840983	5.223700
1143.729517	4.713800
1132.202333	5.414500
1138.263700	5.061600
1141.647033	4.842100
1142.764350	5.092800
1141.648583	5.227900
1147.928050	4.867500
1142.594017	5.192300
1142.672133	5.172100
1145.464500	5.009700
1142.894100	5.197200
1141.871017	5.257100
1151.224783	4.916200
1155.216217	4.723400
1150.004517	5.036600
1149.599200	5.072400
1161.541950	4.494000
1161.532867	4.486100
1162.064233	4.453000
1157.489050	4.752900
1154.845667	4.931000
1155.357383	5.011600
1156.945933	4.936000
1156.873600	4.953300
1161.319967	4.687100
1152.826717	5.206100
1159.003100	4.837500
1162.457033	4.803400
1168.350383	4.444000
1159.167500	4.995300
1153.337450	5.349600
1165.199133	4.782400
1158.855217	5.197100
1168.473800	4.623000
1157.273133	5.272000
1156.595567	5.380400
1162.945750	4.967100
1161.431533	5.069200
1163.040700	4.989600
1164.951150	5.191500
1164.215467	5.237600
1166.059950	5.141100
1169.234900	4.964700
1168.595583	5.097100
1169.297133	5.150200
1172.204383	4.979500
1163.959633	5.485300
1164.986617	5.455400
1166.710917	5.350400
1164.521733	5.474800
1167.470500	5.309100
1169.600633	5.216500
1171.398367	5.225600
1166.698283	5.515900
1166.089000	5.569200
1176.591317	4.973000
1170.432417	5.359400
1169.723450	5.418600
1175.845717	5.240900
1184.443283	4.771300
1180.552017	5.062400
1184.655417	4.829600
1182.167350	4.996800
1187.157267	4.731200
1179.143867	5.175800
1177.931567	5.255000
1183.475650	4.950300
1173.294150	5.569200
1186.965817	4.785200
1181.881217	5.083700
1179.374317	5.380400
1177.985733	5.675200
1183.861900	5.343000
1178.599067	5.666900
1178.349467	5.708000
1189.017583	5.083000
1190.967383	4.978900
1194.177167	4.872200
1189.679667	5.168600
1185.438033	5.431600
1186.069000	5.405400
1187.447100	5.352000
1189.960633	5.211100
1187.844183	5.373400
1187.666050	5.397600
1190.278983	5.509900
1198.756650	5.045400
1195.775250	5.303400
1198.158200	5.192100
1187.682867	5.827100
1188.147167	5.809700
1190.153233	5.899600
1189.822883	5.945800
1198.154950	5.476200
1191.415567	5.880800
1196.910350	5.608500
1200.346800	5.435100
1196.727717	5.611100
1202.378733	5.294500
1200.948133	5.391700
1197.941233	5.587900
1198.788417	5.549900
1202.230383	5.422300
1201.495683	5.474800
1200.343683	5.551300
1199.300233	5.637400
1209.599067	5.056100
1213.322083	4.841200
1211.666150	4.962600
1210.722200	5.028900
1208.484183	5.432800
1214.783350	5.092500
1216.541283	5.008000
1203.976217	5.757200
1216.981167	5.002700
1209.460617	5.450000
1212.295783	5.282200
1207.409950	5.578500
1210.553550	5.509200
1204.857250	5.908800
1213.976450	5.403600
1229.668967	4.461200
1218.559933	5.149600
1223.615217	4.844300
1220.695750	5.024400
1212.466700	5.510100
1204.317933	6.168700
1209.112800	6.056400
1216.068150	5.691300
1225.784383	5.114200
1224.400783	5.276200
1226.057800	5.297100
1229.035033	5.113600
1229.437450	5.097900
1226.333250	5.301300
1220.532600	5.658600
1220.561650	5.679300
1230.736500	5.255100
1231.508200	5.241900
1221.385133	5.871100
1224.825167	5.666900
1223.926800	5.742300
1231.838983	5.284300
1233.542350	5.385300
1230.358917	5.624900
1227.748583	5.807500
1230.282383	5.669200
1237.298617	5.266700
1243.669100	4.881300
1237.350200	5.393100
1234.913583	5.584600
1236.205317	5.530400
1233.241417	5.712500
1230.668967	5.936300
1233.176083	5.786800
1231.338433	5.917000
1238.396600	5.510400
1236.795350	5.730000
1243.561767	5.511500
1236.758517	5.934800
1240.446133	5.716000
1237.973000	5.883900
1245.425883	5.442400
1243.611850	5.541000
1247.347800	5.323200
1242.245700	5.670600
1258.600033	4.989400
1248.657700	5.586000
1245.937067	5.761100
1252.694967	5.346500
1253.245317	5.367500
1253.713117	5.346800
1251.295833	5.458000
1245.076917	5.847200
1246.863233	5.768500
1247.891033	5.713300
1256.806017	5.338400
1244.835050	6.128400
1261.651000	5.141700
1259.436183	5.274100
1250.794517	5.796500
1257.364850	5.424300
1257.958033	5.379700
1247.937450	5.994000
1250.818617	5.983100
1258.965867	5.676800
1258.846767	5.712200
1254.603367	5.963000
1254.557600	5.994900
1258.147817	5.783900
1257.109933	5.885800
1265.487117	5.577200
1265.288433	5.607100
1270.003717	5.320700
1271.035333	5.270200
1256.870950	6.137100
1265.081117	5.648900
1272.766400	5.179500
1262.132017	5.787200
1266.029333	5.800000
1266.193950	5.894400
1266.047667	5.908100
1267.496367	5.851700
1263.105600	6.125100
1261.288633	6.252100
1268.398767	5.838200
1270.723800	5.712900
1272.209700	5.922300
1274.347600	5.819700
1272.907883	5.929600
1265.910800	6.351600
1278.373483	5.669200
1277.324233	5.821600
1287.636067	5.202800
1279.365050	5.719500
1277.774267	5.829800
1283.772917	5.545100
1284.674750	5.490900
1282.669550	5.612400
1280.492817	5.755400
1282.382850	5.665500
1280.681000	5.735400
1285.746133	5.475400
1289.160650	5.263500
1290.037367	5.515400
1292.064983	5.414500
1295.773650	5.205300
1295.303000	5.243100
1291.598750	5.586900
1298.609017	5.209400
1299.974133	5.112100
1285.518433	5.969800
1290.766167	5.659100
1295.974583	5.361700
1293.826100	5.661300
1292.435200	5.780700
1299.357850	5.394600
1298.580650	5.440800
1302.736650	5.202000
1294.866717	5.663600
1294.759783	5.675500
1290.338767	5.968400
1292.410550	5.843700
1294.942333	5.707600
1282.371800	6.574500
1287.792633	6.496000
1301.095233	5.758000
1302.671767	5.692100
1305.160783	5.544400
1301.296117	5.762600
1299.702650	5.847900
1297.900783	6.253600
1303.257067	5.989400
1307.217733	5.759800
1307.893900	5.742300
1299.041633	6.299500
1306.449283	5.863600
1299.369967	6.296000
1311.129300	5.613600
1315.535050	5.689800
1321.140983	5.351200
1315.690817	5.667800
1315.235233	5.696200
1318.292917	5.558000
1320.978567	5.429900
1313.830750	5.834100
1314.327617	5.809100
1317.831917	5.602100
1316.273467	5.697200
1317.231367	5.696600
1322.958200	5.418600
1324.930100	5.307600
1317.807267	5.750000
1320.068683	5.605000
1319.754733	5.667100
1322.140567	5.547500
1323.074633	5.489500
1312.712400	6.226800
1319.168567	6.045200
1326.691300	5.629500
1328.097433	5.608300
1325.659183	5.772700
1329.670883	5.535700
1318.348783	6.234400
1321.724667	6.169700
1319.546683	6.343000
1326.865083	5.927800
1327.661850	5.894400
1340.837583	5.252500
1337.096300	5.514300
1336.456267	5.561300
1339.474033	5.355700
1331.578650	5.841000
1322.239650	6.416100
1338.093333	5.737000
1337.397867	5.777300
1339.965617	5.628200
1341.363600	5.559900
1345.559983	5.399800
1341.390317	5.716700
1340.616133	5.767600
1331.630550	6.308700
1333.558450	6.189600
1332.825650	6.243900
1340.452750	5.858400
1349.261467	5.466200
1346.009867	5.677100
1342.901833	5.893600
1340.801500	6.044700
1335.552233	6.354700
1341.353533	6.042700
1351.058700	5.679900
1353.316117	5.549600
1344.090333	6.095500
1342.878883	6.178900
1349.362967	5.860100
1343.477967	6.222800
1346.962633	6.030700
1350.030000	5.837700
1356.041233	5.473300
1354.219083	5.606200
1350.981100	6.016800
1348.299350	6.206700
1352.205717	6.004100
1361.553550	5.460600
1351.882017	6.134900
1355.319650	6.003000
1353.454467	6.151400
1360.949417	5.699300
1355.302000	6.055500
1361.915517	5.666300
1358.147217	5.949200
1360.555733	5.975500
1361.254017	5.952500
1367.451650	5.589000
1366.955600	5.607900
1369.068117	5.630900
1377.635600	5.116800
1364.530350	5.911500
1372.005167	5.460800
1358.716617	6.261500
1366.467167	5.802800
1369.541900	5.831400
1368.207983	5.963500
1363.955900	6.216900
1366.862250	6.086700
1368.972517	5.948300
1372.533267	5.756900
1365.941483	6.358000
1370.187950	6.135000
1367.783867	6.286400
1370.142550	6.162900
1380.441533	5.641900
1377.790500	5.873400
1380.197317	5.763200
1377.168850	5.954700
1365.231017	6.683000
1381.841367	5.722700
1370.670117	6.457100
1372.008017	6.519200
1378.619833	6.161500
1382.988383	5.920000
1379.537517	6.153500
1386.125833	5.889700
1391.358833	5.588800
1390.092917	5.658800
1382.783783	6.111400
1382.741933	6.091900
1383.971433	6.044500
1388.518950	5.987700
1385.594733	6.193300
1389.812567	5.948600
1385.262050	6.200100
1390.443133	5.942200
1389.431533	6.023500
1384.446717	6.328700
1389.489500	6.048600
1384.257050	6.374700
1380.823967	6.583400
1391.229083	6.145300
1396.887683	5.867800
1391.618833	6.203800
1391.308500	6.220800
1392.275250	6.203100
1390.292750	6.339000
1397.969350	5.985600
1396.955883	6.164500
1399.470300	6.021600
1395.851483	6.229300
1399.256900	6.038100
1393.836033	6.519700
1398.936933	6.260800
1401.996850	6.071100
1405.505600	5.871600
1405.020950	5.895000
1394.241000	6.542100
1402.044467	6.158900
1402.797033	6.143500
1402.464283	6.160900
1411.828283	5.590900
1403.349600	6.207300
1410.906167	5.816600
1402.295533	6.376900
1409.155400	5.958600
1403.540950	6.298200
1404.480983	6.279700
1412.524467	5.986400
1413.353533	5.998000
1416.503600	5.810400
1411.237950	6.138900
1421.447933	5.544700
1409.368783	6.257800
1413.049500	6.095100
1414.451917	6.076400
1408.760533	6.418900
1409.827583	6.372400
1411.700383	6.304300
1417.560600	6.089700
1415.661400	6.221100
1421.899767	5.858300
1421.423333	5.900500
1411.652900	6.475500
1412.972533	6.408400
1415.114567	6.416000
1419.551633	6.134800
1420.045650	6.115200
1412.673633	6.556900
1415.830767	6.594200
1414.565467	6.751100
1416.323683	6.688600
1423.673200	6.280500
1424.343483	6.255400
1422.658817	6.352100
1426.943817	6.307700
1426.486450	6.379500
1426.322500	6.376200
1432.418367	6.028100
1429.739600	6.301200
1432.231967	6.208400
1432.473250	6.198600
1437.075333	5.913400
1434.901550	6.043800
1434.055850	6.094800
1430.620133	6.328000
1433.195850	6.229500
1428.523500	6.522000
1445.265550	5.537700
1434.843650	6.182400
1427.597017	6.624500
1429.273867	6.576200
1435.221500	6.450300
1430.798283	6.735100
1436.926333	6.421300
1438.512600	6.336300
1449.456883	5.833300
1446.510833	6.036400
1437.343367	6.616400
1446.811333	6.062200
1441.537300	6.411600
1440.698917	6.448700
1448.272400	6.209100
1443.265717	6.517100
1451.280133	6.034000
1449.085983	6.180700
1453.051267	6.050000
1451.989233	6.169000
1452.013850	6.191400
1456.562033	5.907100
1456.870250	5.885400
1448.764817	6.367700
1454.445067	6.089900
1453.715150	6.289500
1453.465950	6.298200
1459.458567	5.936300
1456.795500	6.127200
1454.171967	6.424400
1455.553167	6.339800
1450.236367	6.667100
1451.904267	6.602000
1456.337283	6.354400
1456.839750	6.320100
1446.267067	7.163000
1454.460817	6.727400
1463.422200	6.197100
1467.983650	5.929500
1463.490050	6.195600
1455.192250	6.692700
1457.002100	6.835800
1461.625917	6.530600
1456.611567	6.869300
1466.032467	6.315800
1466.032933	6.416200
1465.588033	6.532900
1475.084217	5.978300
1470.116417	6.296300
1469.374233	6.349300
1475.907167	5.948600
1469.496667	6.420500
1464.791117	6.869900
1468.935450	6.633900
1475.351733	6.257800
1472.428583	6.436000
1477.018217	6.294800
1479.728483	6.139600
1475.405433	6.368200
1484.243650	5.826600
1477.333583	6.257800
1479.851417	6.104900
1479.305283	6.216400
1468.405950	6.890100
1474.069867	6.587900
1480.358817	6.236000
1476.759800	6.521100
1473.253767	6.766100
1469.264850	7.041300
1477.966383	6.535600
1475.341350	6.723900
1474.408567	6.803900
1482.986883	6.461500
1482.644533	6.564400
1485.986700	6.353700
1479.811750	6.724200
1481.054200	6.669600
1476.600483	6.956500
1482.858450	6.660900
1487.788150	6.502800
1493.975283	6.155200
1489.925233	6.418900
1488.932083	6.480100
1490.328650	6.460200
1497.512417	6.063800
1498.459433	6.014500
1490.713783	6.478600
1494.749567	6.252200
1494.411617	6.274100
1494.047717	6.526100
1488.395833	6.865900
1496.770467	6.424400
1496.026633	6.490900
1490.063583	6.972400
1490.396450	6.991200
1500.744233	6.436900
1500.501033	6.461500
1493.912833	6.874300
1492.939167	6.943400
1501.020033	6.712600
1503.691683	6.543100
1503.464317	6.572000
1503.805417	6.555200
1502.196633	6.661900
1503.504700	6.590400
1511.505867	6.170600
1513.377733	6.056200
1509.547333	6.272800
1512.061800	6.114000
1500.907467	6.795800
1507.676183	6.469600
1513.904733	6.102700
1507.890117	6.495200
1508.803300	6.458400
1499.358600	7.040700
1498.536033	7.132900
1511.910700	6.610500
1519.348533	6.201400
1508.151033	6.893500
1515.037133	6.504400
1508.325767	7.035800
1514.907067	6.693500
1510.338583	6.973300
1519.858517	6.403100
1518.005733	6.520300
1510.373517	7.001900
1516.642483	6.883900
1517.089900	6.867000
1520.287833	6.687100
1527.887633	6.236200
1506.800367	7.541300
1510.024400	7.415400
1522.820183	6.673000
1520.198533	6.847000
1518.208133	6.982900
1523.631183	6.667300
1522.933250	6.786000
1521.626750	7.045200
1521.399300	7.073700
1529.031650	6.635100
1524.460333	6.940900
1528.508800	6.692700
1533.299283	6.400300
1528.399350	6.931800
1524.439200	7.189200
1531.685900	6.765600
1521.865950	7.356000
1526.670450	7.246800
1533.476950	6.898500
1533.411600	6.878100
1538.072467	6.610700
1535.878017	6.739700
1535.086317	6.815600
1537.512617	6.865700
1541.446883	6.656200
1537.984017	6.894200
1538.999183	6.843100
1538.528150	6.929400
1540.145167	6.857000
1543.460383	6.702100
1537.244633	7.089100
1543.533467	6.730700
1538.979167	7.005800
1538.646167	7.123400
1546.429800	6.802800
1546.077533	6.841300
1544.521550	6.938100
1545.677283	6.891700
1554.283350	6.522000
1550.221933	6.773800
1553.704033	6.561100
1545.434083	7.049800
1546.668200	7.014000
1553.841833	6.571300
1549.975400	6.973500
1551.371267	6.938900
1555.566283	6.706300
1558.120617	6.586100
1559.379267	6.497900
1558.705217	6.504200
1549.410067	7.186700
1558.126083	6.677800
1557.769567	6.711200
1558.992750	6.633900
1553.923433	7.036300
1561.168283	6.692200
1555.346250	7.100700
1556.049333	7.026700
1552.520450	7.269300
1558.105000	6.952800
1562.741367	6.738800
1571.776800	6.369900
1568.487550	6.584700
1568.037717	6.608300
1563.835550	6.888300
1578.059900	6.200700
1565.378417	6.975500
1575.340067	6.388400
1567.795800	6.856200
1565.446183	7.006900
1575.506333	6.418000
1570.564417	6.904400
1562.568733	7.384600
1572.537950	6.810900
1568.408500	7.073400
1573.500233	6.874300
1571.785300	7.046400
1571.726200	7.079700
1569.093183	7.234900
1573.918533	6.963700
1571.122167	7.143800
1571.687133	7.302700
1579.248700	6.862200
1574.925400	7.149900
1575.053467	7.149500
1585.797517	6.574700
1587.415567	6.576200
1581.601867	6.911900
1579.485383	7.058200
1582.834600	6.876600
1581.885167	6.942500
1587.653250	6.579000
1585.789983	6.698800
1577.792050	7.233600
1579.125150	7.449000
1582.219283	7.295200
1587.903050	6.969900
1587.292450	7.013100
1594.875400	6.687000
1592.651383	6.847600
1591.991550	6.868200
1584.104950	7.337100
1602.256617	6.246800
1592.970350	6.787800
1581.772883	7.444300
1594.980950	6.654900
1594.230317	6.994400
1592.309367	7.203200
1600.280217	6.789500
1597.579517	6.963800
1599.718983	6.864700
1593.732200	7.190400
1605.484617	6.476600
1603.958883	6.583000
1599.247017	6.893900
1602.920233	6.667900
1600.335533	6.940600
1601.951817	6.976100
1597.734000	7.256700
1604.510333	6.864700
1607.345283	6.696400
1600.828583	7.102000
1608.013033	6.678700
1604.052267	6.923300
1600.405967	7.124300
1601.429617	7.080800
1609.151800	6.627900
1602.546950	7.394400
1613.051000	6.864300
1610.111750	7.063500
1605.111983	7.366000
1605.054833	7.377700
1604.053267	7.449800
1609.438517	7.140200
1611.266317	7.046900
1599.664133	8.051800
1605.808933	7.728700
1625.355533	6.550000
1619.306883	6.907600
1621.799333	6.871900
1621.498550	6.939000
1616.668700	7.274400
1614.091567	7.454900
1616.922117	7.315100
1626.518867	6.735500
1625.203950	6.816000
1619.138967	7.247600
1623.172183	7.023400
1628.180550	6.736800
1622.907033	7.056100
1626.530300	6.878700
1622.999417	7.107500
1626.187733	7.091800
1624.815800	7.220100
1626.123117	7.168400
1625.518750	7.212900
1632.931617	6.768500
1636.611650	6.542400
1634.023267	6.715700
1626.863933	7.159600
1634.501033	6.942100
1635.889733	6.949300
1635.124083	7.031200
1630.491417	7.309100
1637.348417	6.890900
1639.872467	6.766100
1636.682483	6.972700
1636.593483	6.971500
1633.313550	7.239300
1635.623733	7.190500
1630.920933	7.503100
1634.359967	7.319000
1633.132817	7.403000
1630.655900	7.560000
1633.887350	7.368600
1642.111083	6.879400
1635.682317	7.377800
1646.232717	6.984500
1641.608083	7.263700
1643.119200	7.187700
1633.626217	7.773800
1640.120917	7.580900
1641.635817	7.486100
1644.198367	7.325600
1643.988883	7.346500
1654.411033	6.878200
1648.163733	7.292800
1649.715083	7.244500
1650.890550	7.189500
1643.793317	7.651100
1642.346483	7.736500
1645.910217	7.535000
1644.363967	7.629800
1645.401183	7.576000
1649.617117	7.334600
1647.635233	7.572100
1660.654333	6.841600
1659.662950	6.908700
1656.292333	7.114900
1656.748850	7.122600
1660.172700	6.959100
1650.441017	7.566500
1656.461900	7.215600
1644.528783	8.069800
1657.709817	7.508300
1664.879700	7.120200
1660.672617	7.389500
1666.098550	7.102500
1670.060483	7.012000
1670.530783	7.018900
1662.355367	7.511600
1661.531167	7.589900
1677.206033	6.800200
1671.803600	7.139400
1675.425700	6.944700
1666.533000	7.480500
1673.242517	7.106000
1665.493183	7.568200
1673.435800	7.118400
1679.055167	6.784400
1672.098017	7.392500
1680.320883	7.028800
1686.612533	6.682000
1679.369683	7.118800
1686.022933	6.744100
1673.512633	7.494700
1674.938783	7.453300
1671.904133	7.644100
1679.816867	7.499300
1679.866350	7.497600
1681.170117	7.427900
1681.117717	7.446200
1684.457183	7.323400
1684.316250	7.425300
1688.829883	7.153900
1684.151100	7.449900
1686.961433	7.284700
1682.072350	7.590300
1674.802500	8.073900
1675.474233	8.226100
1684.868617	7.694300
1692.821367	7.226600
1692.058233	7.282300
1685.452317	7.724300
1691.204683	7.361500
1692.820633	7.243900
1696.646883	7.011100
1689.413217	7.580000
1700.475817	6.949400
1684.415550	7.937400
1691.155767	7.564400
1694.898150	7.344000
1692.257500	7.503000
1692.129367	7.559300
1696.791433	7.296700
1698.118900	7.326300
1699.963083	7.239100
1702.148550	7.111200
1690.778767	7.820900
1701.017000	7.436400
1705.917267	7.247000
1704.403267	7.374200
1709.387717	7.060700
1716.797700	6.611700
1705.637033	7.266400
1706.670450	7.260000
1707.637567	7.357400
1702.465083	7.692700
1707.746000	7.401000
1711.123517	7.195100
1709.870767	7.290500
1711.543967	7.195100
1704.664817	7.616000
1705.651317	7.562300
1715.537717	7.248200
1704.926067	7.936700
1713.038950	7.457400
1717.835567	7.185500
1706.297800	7.892700
1712.843600	7.496100
1708.478950	7.765800
1712.441917	7.540100
1723.850417	7.093700
1718.441300	7.498200
1718.340767	7.564700
1720.264667	7.497200
1724.947883	7.232200
1731.349900	6.864300
1720.254217	7.541300
1716.397667	7.790300
1726.675550	7.183200
1719.718500	7.609500
1722.212683	7.606600
1726.055517	7.579400
1723.660733	7.738600
1724.083600	7.722900
1724.171317	7.695800
1724.600200	7.709100
1732.330833	7.260700
1722.834567	7.824500
1727.466217	7.623800
1725.949300	7.978200
1730.757150	7.712100
1734.023867	7.519700
1730.289733	7.737100
1719.605600	8.387100
1725.505850	8.030100
1727.165617	7.961600
1740.968433	7.151200
1735.558833	7.732600
1739.931067	7.598600
1738.135683	7.716100
1738.861583	7.687600
1745.414533	7.321000
1747.105617	7.216100
1744.608967	7.336700
1746.237667	7.228700
1744.662483	7.327600
1735.417700	7.870200
1738.264250	7.789800
1740.800117	7.724900
1740.625500	7.754100
1744.833783	7.518400
1741.012733	7.781800
1739.874633	7.882600
1746.824417	7.488800
1749.769067	7.319900
1744.200300	7.747200
1755.738783	7.334800
1756.577817	7.315400
1749.672033	7.748800
1764.612583	6.855100
1750.833800	7.640400
1753.242400	7.506300
1754.360183	7.441600
1752.756833	7.555000
1756.037717	7.489700
1755.428133	7.604200
1762.525667	7.205000
1756.173117	7.619600
1753.787133	7.789000
1763.985300	7.192500
1774.772633	6.550000
1757.668800	7.596000
1758.128817	7.592000
1762.879483	7.348300
1756.416883	7.823800
1756.705883	7.919500
1757.462950	7.959000
1757.360167	8.008400
1767.552467	7.420700
1774.426483	7.023100
1764.469850	7.623000
1766.330917	7.539200
1771.014983	7.305700
1779.792200	7.079700
1776.768967	7.268600
1774.764383	7.406200
1767.714450	7.863300
1779.873850	7.312500
1770.856100	7.885500
1775.084150	7.641000
1775.293200	7.656000
1773.692533	7.773400
1770.581117	7.973600
1772.584333	8.071600
1776.992900	7.863000
1788.402950	7.202100
1782.929633	7.530100
1758.217800	9.020400
1778.521800	7.832400
1778.440300	7.854600
1781.802083	7.670500
1784.673117	7.583300
1780.902550	7.832700
1788.382983	7.404100
1777.188600	8.096700
1785.821317	7.647800
1788.580950	7.631400
1787.001800	7.736700
1786.584167	7.802900
1788.607117	7.702700
1790.830567	7.632200
1791.636400	7.565100
1800.065033	7.068700
1798.432683	7.176400
1791.661317	7.575200
1787.924733	7.810300
1797.510017	7.550600
1798.807867	7.518200
1795.301617	7.745900
1801.873017	7.334600
1804.310700	7.333200
1803.662117	7.470200
1793.286850	8.087400
1804.567917	7.430600
1802.163300	7.569000
1797.898050	7.836600
1795.109533	8.026600
1800.202017	7.745900
1792.802683	8.236300
1793.718817	8.303600
1808.709283	7.438000
1805.516467	7.633100
1799.700883	8.062600
1803.992833	7.946200
1806.901733	7.799500
1807.630817	7.769600
1802.795750	8.080800
1804.637333	8.011600
1804.580333	8.022400
1806.850683	7.915300
1806.819583	7.932400
1806.870533	7.951600
1814.632450	7.501800
1809.439317	7.966100
1810.014050	7.964400
1807.794267	8.128100
1815.136550	7.730100
1813.615217	8.009600
1821.964800	7.581900
1823.328867	7.508300
1817.889517	7.823300
1825.123117	7.399700
1814.018700	8.078400
1807.624017	8.506400
1817.970350	7.913400
1823.504083	7.929400
1826.184833	7.777300
1831.317683	7.482100
1824.506083	7.904500
1823.916583	8.007400
1832.420633	7.616800
1825.827650	8.023800
1832.141767	7.649900
1824.618450	8.117400
1832.172083	7.680700
1831.724983	7.703500
1828.637133	7.906600
1817.557550	8.622600
1822.042900	8.475600
1831.142950	7.954200
1823.866133	8.431300
1827.994467	8.229800
1821.006200	8.670300
1825.533933	8.429500
1826.304833	8.425600
1830.027867	8.214200
1837.925650	8.053200
1837.528550	8.117700
1839.173483	8.025700
1842.513983	7.840300
1842.015717	7.985900
1842.359383	8.038300
1834.884850	8.511600
1831.116900	8.737200
1834.718183	8.550100
1842.229367	8.123000
1847.152200	8.086800
1854.980500	7.602900
1850.775850	7.885500
1845.291217	8.226200
1848.111400	8.087700
1843.689600	8.412000
1853.857267	7.821200
1850.833583	8.010700
1857.674350	7.629000
1866.066667	7.178000
1859.640050	7.571400
1862.901733	7.379200
1867.670600	7.091100
1858.707883	7.753600
1856.071550	7.951200
1850.026250	8.345100
1849.112433	8.440600
1855.607467	8.074400
1853.626817	8.188400
1857.978700	8.098200
1860.709217	8.018600
1846.193083	8.905000
1857.394350	8.249100
1861.903067	8.007200
1854.985733	8.427400
1851.885983	8.695900
1868.285983	7.798600
1861.679450	8.221800
1860.154733	8.339200
1861.759683	8.307100
1862.475000	8.423700
1864.942783	8.290600
1865.312567	8.280800
1861.974017	8.495900
1865.186467	8.333000
1869.592717	8.081900
1865.838850	8.525400
1866.816533	8.505700
1874.760283	8.053600
1871.822450	8.241300
1880.968933	7.696000
1881.387700	7.672800
1878.041917	7.854800
1872.272300	8.196900
1878.958833	8.134000
1881.954467	7.945700
1877.296050	8.239200
1883.894917	7.866500
1887.102967	7.814000
1889.716367	7.684700
1893.683683	7.494100
1885.657083	7.968100
1876.402267	8.526500
1880.371733	8.299000
1880.509917	8.446400
1886.606167	8.222600
1887.826917	8.159300
1892.839683	7.861900
1890.474967	8.014700
1883.124150	8.479800
1884.549583	8.429500
1889.819033	8.090500
1893.021700	7.903200
1891.557900	8.271300
1886.540767	8.624600
1894.184650	8.186100
1895.423733	8.134000
1892.335017	8.334200
1889.881650	8.479800
1886.204550	8.705700
1896.005383	8.145100
1881.506700	9.092100
1889.247550	8.642700
1901.086717	7.944200
1894.055250	8.361600
1893.278483	8.548300
1903.739233	7.991800
1906.821283	7.800100
1902.966133	8.051200
1903.035167	8.063900
1902.751667	8.094500
1896.355083	8.550100
1902.979100	8.227800
1896.643017	8.634200
1903.158650	8.299200
1901.585167	8.413700
1904.716050	8.239200
1905.285350	8.246400
1896.594617	8.800700
1901.858050	8.613900
1908.645400	8.454600
1908.537100	8.498100
1910.798017	8.389700
1912.560367	8.304800
1907.043383	8.632300
1907.309833	8.640100
1912.703083	8.339200
1910.841067	8.463800
1923.284483	8.067100
1924.241950	8.040600
1909.413433	8.958700
1921.734083	8.222500
1913.898983	8.915500
1921.417033	8.465500
1916.314633	8.791000
1926.252267	8.201600
1923.261300	8.490300
1928.523350	8.246100
1932.142667	8.041100
1931.487867	8.071400
1930.257400	8.147100
1937.028283	7.769500
1932.500067	8.049200
1926.807033	8.374600
1923.378583	8.602900
1925.262717	8.519600
1927.743267	8.519300
1942.522067	7.856000
1934.432250	8.375700
1944.661650	7.790400
1935.418200	8.334600
1932.687917	8.506400
1929.990417	8.677400
1933.292067	8.516300
1931.410550	8.640300
1941.070133	8.219200
1944.575500	8.019300
1940.307583	8.300500
1938.997917	8.386100
1939.074700	8.532600
1937.540650	8.668200
1951.626933	7.869100
1948.125483	8.057800
1944.177067	8.358500
1940.738650	8.663100
1953.502150	7.931400
1950.370333	8.116900
1947.672350	8.299800
1947.132050	8.332200
1938.308583	8.897500
1942.425200	8.677500
1934.940450	9.150600
1939.629267	8.894000
1946.224783	8.689600
1946.721967	8.892200
1949.248083	8.769400
1951.436383	8.662000
1951.848900	8.684700
1954.097000	8.541300
1954.756150	8.510700
1949.454917	8.862500
1960.900017	8.183600
1966.928467	8.145500
1961.714333	8.468800
1965.803883	8.234200
1960.574783	8.567800
1967.748067	8.314100
1959.782500	8.783400
1964.149300	8.533800
1961.236483	8.707900
1966.533233	8.504800
1964.915750	8.641500
1959.311783	8.996200
1959.468367	9.017900
1964.373433	8.742400
1966.465150	8.601900
1974.408083	8.136100
1969.842967	8.388500
1970.466017	8.334500
1970.298417	8.345900
1967.474683	8.661100
1978.077800	8.242800
1976.703867	8.335700
1970.204167	8.771000
1981.693183	8.084800
1973.710867	8.561900
1967.642350	8.929800
1972.694733	8.651800
1972.547633	8.668600
1972.978783	8.875900
1975.024300	8.775600
1977.273100	8.650200
1975.846600	8.739300
1973.053217	9.158900
1974.763567	9.063500
1982.418200	8.635800
1993.117383	7.996300
1980.680933	8.858500
1989.810283	8.367700
1988.005150	8.490000
1989.600517	8.415500
1992.029733	8.269900
1983.113250	8.775000
1983.164417	8.769500
1983.838867	8.745800
1986.852667	8.553200
1987.530083	8.554300
1989.358833	8.520400
1985.557300	8.833500
1986.042917	8.849600
1993.870900	8.391600
1996.990467	8.253800
1989.955700	8.796900
1990.983217	8.762600
1998.587117	8.324000
1985.730817	9.092900
1996.000700	8.716800
1997.479633	8.686000
1998.426800	8.654400
1993.437533	8.962300
2001.632283	8.493400
1995.743533	8.873500
2015.305283	7.720900
1999.932067	8.630000
1996.111633	8.882800
2000.467833	8.645200
1999.679517	9.017300
1998.904700	9.176400
2008.432383	8.630500
2007.484683	8.728600
2010.582517	8.536400
2009.102367	8.627000
2015.553967	8.330300
2011.039850	8.598300
2011.573083	8.569300
2014.471633	8.406700
2009.140367	8.750300
2011.139450	8.649600
2009.968833	8.861500
2008.280700	9.085200
2014.394117	8.741900
2017.249183	8.611300
2013.298567	8.908700
2020.616983	8.601400
2015.714417	8.914700
2013.167533	9.098800
2013.064500	9.124500
2016.412100	8.941200
2015.189367	9.019700
2024.521683	8.487100
2020.073450	8.754900
2019.969533	8.896300
2023.168083	8.736400
2022.250833	8.879500
2031.883000	8.302500
2034.624033	8.138500
2021.766000	8.912400
2031.797250	8.398500
2025.364400	8.836800
2027.008600	8.779800
2026.320133	8.841400
2023.403733	9.028000
2029.786517	8.665400
2032.654283	8.507800
2030.181100	8.653200
2032.605267	8.704100
2032.238367	8.898200
2042.268467	8.309300
2036.018033	8.677000
2031.190467	8.988200
2042.879283	8.305600
2037.541767	8.626100
2037.604083	8.659600
2040.310833	8.540500
2036.752783	9.042400
2029.789433	9.489400
2041.450733	8.817100
2035.907633	9.177700
2033.894033	9.496900
2040.437117	9.125900
2041.681500	9.075900
2052.597583	8.429500
2053.047333	8.519500
2050.313950	8.723700
2051.474583	8.645500
2053.739650	8.495100
2053.559417	8.516900
2052.687200	8.580300
2046.784300	8.940000
2049.258250	8.817000
2051.942650	8.825400
2046.993883	9.315700
2052.803750	9.020400
2055.371450	8.871600
2054.353533	8.941000
2046.823500	9.408000
2053.947983	9.092200
2060.658783	8.828800
2068.130133	8.388700
2066.064767	8.516900
2062.077150	8.787000
2065.780617	8.736500
2060.438267	9.085400
2061.442567	9.044600
2060.927533	9.072100
2063.248300	8.951700
2060.264017	9.133700
2068.417483	8.701000
2063.363750	8.978400
2064.107483	8.959300
2063.512167	8.992400
2064.463500	9.236100
2061.858267	9.479300
2071.719817	8.930300
2071.313617	8.956700
2072.529033	8.876200
2074.038233	8.795200
2070.212000	9.052500
2072.761900	8.911800
2078.111033	8.778100
2083.684767	8.582900
2082.055717	8.671400
2080.156017	8.799500
2082.467433	8.658100
2077.386033	8.976100
2074.248417	9.165500
2078.224317	8.930900
2076.223700	9.162000
2084.132183	8.902900
2084.441733	8.914000
2087.853167	8.704400
2082.257483	9.058900
2080.146417	9.335900
2084.585900	9.077400
2086.601067	8.964200
2088.806250	8.833800
2084.934583	9.230800
2092.581717	8.839400
2093.714700	8.757000
2084.098083	9.341200
2085.705100	9.253500
2092.280083	8.880100
2090.660450	8.984400
2094.897283	8.743900
2087.934283	9.156100
2089.948050	9.056100
2093.047567	9.091400
2100.604133	8.814100
2094.851617	9.182600
2092.505733	9.325300
2098.049517	9.002900
2099.836200	8.888700
2096.311250	9.111300
2096.003333	9.123700
2105.416800	8.705700
2102.782133	9.078400
2106.002333	8.890600
2104.501433	9.003100
2104.059350	9.099900
2106.338717	9.101300
2102.093183	9.368200
2097.971800	9.648600
2104.791500	9.282600
2100.723300	9.685500
2105.074600	9.446400
2110.571383	9.129100
2110.240600	9.151500
2114.020417	8.933600
2114.462233	8.929000
2118.844917	8.848400
2116.910683	8.998600
2111.469383	9.334300
2111.201233	9.371500
2112.014600	9.335100
2117.259417	9.021200
2105.415700	9.714000
2109.921217	9.479300
2108.945433	9.784300
2116.698383	9.458800
2118.527533	9.363100
2117.781983	9.436300
2116.126000	9.560100
2125.418783	9.028300
2117.750250	9.483600
2125.847050	9.006000
2126.905067	9.148700
2124.162517	9.442700
2126.767700	9.301200
2135.870917	8.765000
2133.645650	8.877300
2135.663600	8.756700
2129.446000	9.132300
2140.356250	8.480700
2128.066850	9.223500
2133.130317	9.034100
2127.543517	9.390500
2125.563367	9.551900
2129.808100	9.339900
2128.672050	9.564600
2127.843500	9.673800
2137.366417	9.156800
2138.747900	9.077700
2137.852100	9.149100
2139.250800	9.074100
2128.466050	9.896700
2140.396417	9.255200
2136.351617	9.499700
2139.385600	9.345600
2146.170350	8.957400
2140.786317	9.304700
2136.753933	9.556000
2146.397833	9.005800
2144.310350	9.345600
2149.918133	9.143200
2148.397467	9.254900
2148.988817	9.222800
2143.855733	9.553000
2151.830283	9.097000
2149.304350	9.329100
2153.581117	9.228200
2150.203267	9.441500
2151.920317	9.348800
2154.305667	9.218900
2156.254783	9.113200
2155.267567	9.205400
2159.415733	9.156100
2158.051283	9.269200
2158.544483	9.261700
2165.853500	8.827200
2159.206800	9.237600
2154.775117	9.505700
2153.690533	9.659200
2162.669750	9.147000
2166.028367	8.963600
2155.822817	9.586100
2157.928283	9.484000
2165.211083	9.090100
2163.767617	9.209900
2166.052250	9.102300
2172.383333	8.945200
2167.262567	9.377000
2173.446900	9.028500
2172.856367	9.063500
2177.338767	8.791700
2175.614167	8.911100
2169.675450	9.278100
2168.260900	9.359400
2167.506850	9.549300
2173.701883	9.399400
2175.781267	9.295400
2175.744600	9.293100
2176.615167	9.316400
2179.989150	9.221700
2175.668583	9.484000
2186.861700	8.796600
2181.755567	9.122900
2174.533200	9.558000
2171.633317	9.781700
2178.097217	9.605000
2186.914200	9.116100
2183.724583	9.330100
2183.843200	9.306600
2184.333850	9.273600
2182.983533	9.365200
2181.896783	9.444700
2184.267667	9.314900
2177.888600	9.811500
2183.585983	9.541000
2185.572867	9.461600
2185.901567	9.458900
2196.794467	8.800100
2192.832517	9.081800
2185.620400	9.537000
2185.612017	9.562700
2194.863367	9.387500
2193.018050	9.497400
2191.599917	9.595400
2192.101100	9.589200
2188.222400	9.868500
2190.244833	9.912700
2192.209183	9.828100
2190.608750	9.940500
2195.793233	9.647200
2201.552350	9.337800
2191.616383	9.963700
2194.422667	9.865400
2192.395417	10.030100
2192.604567	10.134800
2198.947650	9.785400
2200.265433	9.728500
2194.263833	10.093900
2191.278767	10.303100
2203.212150	9.610500
2205.213833	9.797800
2212.296067	9.440000
2203.165367	10.008800
2207.485900	9.779400
2213.827617	9.400700
2212.061083	9.495400
2211.583767	9.526400
2217.999017	9.164600
2209.245633	9.886900
2213.356667	9.792200
2217.494550	9.564000
2211.516783	9.934600
2213.790783	9.816100
2215.618783	9.698500
2222.226467	9.290900
2213.761733	9.818200
2218.628300	9.661200
2226.700100	9.387000
2228.139833	9.312700
2224.631517	9.544100
2226.550300	9.447000
2223.297817	9.639800
2220.947150	9.793800
2218.282700	10.152300
2228.642367	9.552200
2221.817917	9.983600
2227.435283	9.664300
2229.743850	9.683100
2233.901217	9.465200
2227.647183	9.838000
2232.004283	9.576400
2234.355517	9.444200
2227.173400	9.879300
2231.151100	9.669000
2225.443783	10.001200
2227.917167	10.120400
2239.275633	9.545500
2240.151350	9.495300
2237.721833	9.652000
2237.564983	9.674800
2236.913650	9.719700
2238.172083	9.646000
2234.322983	9.871900
2248.587167	9.134000
2239.488183	9.899800
2242.957883	9.704500
2246.183517	9.533000
2249.373000	9.348000
2254.771300	9.043200
2249.823567	9.369800
2244.649500	9.808800
2247.438100	9.676800
2231.546650	10.614900
2237.455217	10.301000
2252.514117	9.581600
2248.361883	9.868300
2246.549450	10.026000
2252.423050	9.684300
2252.829367	9.784100
2248.486067	10.057100
2247.187400	10.161900
2259.879217	9.419000
2251.725850	10.035300
2254.382750	9.945600
2263.782750	9.405900
2259.481400	9.662100
2266.053000	9.293100
2257.959567	9.777200
2258.337817	9.765200
2260.359667	9.653300
2256.165250	9.912000
2255.610283	9.957100
2267.683950	9.460200
2261.054417	10.017500
2263.009017	9.936500
2262.857067	9.982400
2272.090750	9.436500
2271.922967	9.435500
2269.132800	9.599400
2269.572017	9.583700
2267.434783	9.748600
2273.159150	9.666000
2275.867717	9.539600
2275.431050	9.587400
2277.861767	9.448700
2268.538033	10.189300
2268.011750	10.226100
2276.255333	9.759100
2278.852933	9.619900
2281.606350	9.557100
2284.950183	9.416800
2276.699167	9.929300
2277.659500	9.887100
2278.798600	9.801900
2278.960117	9.802700
2281.302150	9.681300
2280.138800	9.751200
2277.866850	9.881400
2278.244450	9.871800
2273.250600	10.336500
2284.778767	9.889100
2286.979500	9.792600
2281.195933	10.157200
2290.457400	9.633600
2281.421183	10.326400
2286.393250	10.067100
2287.468633	10.032700
2298.627283	9.391600
2282.021017	10.367300
2279.724017	10.511600
2283.957100	10.290300
2289.098333	10.014100
2292.178050	9.990000
2295.413417	9.787700
2298.555367	9.633800
2290.531333	10.120300
2292.907783	10.130200
2296.770717	9.951200
2299.974300	9.800400
2295.601883	10.064800
2301.355000	9.749400
2301.200167	9.778400
2295.630967	10.148900
2294.800500	10.214700
2305.212150	9.774300
2301.484833	10.143400
2298.991717	10.363100
2303.704900	10.059600
2299.115450	10.342800
2298.144517	10.415600
2306.200350	10.058100
2310.106933	9.997900
2302.359733	10.483300
2301.917683	10.520500
2313.985550	9.813600
2322.907467	9.280700
2316.913717	9.640700
2309.529433	10.084300
2300.955900	10.604400
2308.772267	10.458800
2308.569600	10.518000
2321.247833	9.762700
2316.222200	10.081500
2314.451567	10.251200
2309.877833	10.550800
2319.719733	9.968800
2318.133150	10.080600
2316.541167	10.200500
2321.136000	9.910200
2311.195767	10.538300
2312.963383	10.457500
2324.413167	9.978500
2328.155467	9.902900
2331.463183	9.711100
2324.441500	10.148700
2326.556267	10.047500
2322.587883	10.282900
2314.529733	10.784800
2322.363117	10.344200
2324.032283	10.430500
2330.724200	10.233000
2331.394783	10.215400
2329.631183	10.339900
2342.703283	9.575500
2333.818183	10.153300
2339.135533	9.852100
2343.180750	9.641400
2341.494183	9.762400
2332.204483	10.316500
2334.666117	10.181900
2340.658300	9.996600
2339.745967	10.129100
2336.682700	10.329300
2334.562483	10.476400
2338.958133	10.245100
2345.568317	9.877100
2338.710333	10.296400
2338.111833	10.337200
2348.105567	10.015400
2339.897467	10.611200
2344.602733	10.351900
2346.402550	10.275900
2352.269517	9.941900
2347.272067	10.241300
2351.605600	9.984600
2346.435917	10.282700
2346.194067	10.384100
2352.080317	10.285100
2352.985400	10.249200
2356.270800	10.052100
2361.258433	9.784300
2358.346150	10.096500
2356.796417	10.201700
2361.740817	9.916400
2358.639817	10.100900
2358.310933	10.276900
2353.082417	10.627100
2362.783333	10.121800
2358.547683	10.387300
2367.241967	9.886100
2363.950367	10.056500
2362.546817	10.283900
2364.243150	10.209000
2365.821233	10.138300
2361.145333	10.453300
2359.522450	10.551900
2358.033833	10.672600
2361.221100	10.668300
2351.796783	11.306200
2364.067050	10.583400
2372.815317	10.066100
2362.149267	10.677200
2367.977567	10.342100
2364.763667	10.635800
2359.973200	10.940100
2363.165650	10.780500
2359.663833	11.029900
2362.474917	10.899800
2363.841133	10.934800
2368.607833	10.687000
2373.328033	10.423600
2374.583183	10.376200
2377.358017	10.219700
2382.065950	9.964500
2372.343967	10.555100
2379.349383	10.140700
2372.258883	10.587100
2379.583367	10.173500
2381.427683	10.443100
2381.926200	10.424700
2382.392500	10.419900
2383.049117	10.394600
2380.670417	10.671800
2383.808300	10.500900
2386.421367	10.362500
2389.246233	10.220800
2390.484100	10.216200
2381.057667	10.912100
2381.810383	10.924000
2380.140050	11.050200
2391.286167	10.412900
2388.575750	10.590000
2387.889650	10.653300
2387.968583	10.660300
2388.451333	10.665400
2388.012567	10.681100
2393.013550	10.539900
2390.788000	10.964700
2398.162933	10.550500
2389.468633	11.086000
2392.873133	10.907800
2398.750133	10.588000
2394.383583	10.884100
2402.439717	10.597400
2402.637100	10.608300
2402.432283	10.648300
2410.037817	10.218500
2410.793117	10.263800
2399.894200	10.958400
2399.934167	10.977800
2400.575750	10.930800
2402.275933	10.840000
2405.849667	10.625900
2403.086550	10.892100
2413.948633	10.256500
2403.913033	10.927300
2399.873367	11.222000
2406.275417	10.851500
2404.270567	10.986200
2405.248083	10.928800
2416.769367	10.242500
2412.954883	10.463500
2407.490900	10.783800
2416.191800	10.398300
2417.075483	10.574800
2421.754483	10.332400
2422.577550	10.279200
2412.838600	10.877100
2416.994200	10.647000
2407.635133	11.263000
2417.401850	10.870800
2413.947483	11.107900
2421.616050	10.668600
2418.000750	10.919100
2420.539000	10.845000
2426.998117	10.494200
2426.305900	10.572900
2429.639417	10.351400
2425.440533	10.614100
2410.494433	11.512600
2423.065233	10.932400
2428.818467	10.698200
2430.868367	10.568900
2430.548350	10.603200
2426.607367	10.840400
2430.396267	10.643000
2428.477900	10.771500
2435.718517	10.342700
2429.373017	10.825700
2428.121450	11.122500
2426.320033	11.260000
2438.607967	10.532300
2433.835433	10.844800
2436.251617	10.730300
2429.350833	11.178700
2430.762400	11.116500
2435.537800	10.862400
2444.537783	10.459300
2443.809183	10.519000
2434.418800	11.114700
2432.925750	11.206200
2429.466950	11.548500
2437.034450	11.098800
2435.295200	11.210700
2444.016833	10.717900
2438.084300	11.191800
2441.127683	11.021500
2445.782050	10.765200
2438.038750	11.267100
2452.108467	10.550300
2451.000650	10.679100
2443.248750	11.160300
2457.213800	10.356900
2461.181783	10.142800
2451.978250	10.712400
2449.654417	10.930400
2460.635950	10.441500
2461.434517	10.412300
2463.674383	10.275700
2463.085617	10.323800
2459.069750	10.575300
2454.599650	10.864200
2456.631600	10.755600
2449.069400	11.238600
2449.080550	11.575200
2448.936800	11.597400
2454.184800	11.327700
2464.308683	10.734100
2469.827650	10.552500
2466.418233	10.781800
2462.343150	11.046000
2463.682467	10.967000
2464.169450	10.943100
2464.705483	10.924000
2468.484833	10.885000
2463.272083	11.251000
2460.657017	11.452100
2467.369717	11.096000
2457.253433	11.726800
2468.606767	11.045000
2467.639067	11.102300
2468.838450	11.039100
2476.367117	10.912100
2480.870083	10.663000
2472.294483	11.196700
2472.132383	11.237500
2476.981900	10.990800
2481.552350	10.829100
2488.099417	10.449800
2491.908667	10.214900
2491.581283	10.201900
2486.088283	10.518700
2481.230017	10.858400
2484.093717	10.877600
2481.367950	11.059200
2481.991167	11.046200
2486.554083	10.795600
2479.764400	11.246400
2486.729983	10.836700
2487.340067	10.812200
2487.621117	10.800500
2492.055917	10.872500
2487.328833	11.184100
2484.663483	11.367700
2488.002050	11.193300
2501.629333	10.432300
2495.250350	10.788300
2485.653933	11.373100
2496.610450	10.742700
2501.396233	10.718200
2494.776483	11.218000
2503.487517	10.679300
2494.343700	11.230500
2497.168967	11.083700
2500.888200	10.870500
2503.189533	10.735000
2507.993300	10.446000
2496.140300	11.485500
2497.024717	11.448800
2502.024000	11.175300
2501.685817	11.216900
2497.342467	11.540600
2503.767567	11.198600
2501.110133	11.379100
2507.545133	11.032000
2519.151633	10.335400
2519.131450	10.346100
2518.471550	10.380300
2512.027833	10.803700
2511.585533	10.850200
2500.077000	11.570700
2512.779517	10.825400
2498.867000	11.690100
2509.312933	11.065900
2510.337717	11.024000
2502.849967	11.511500
2518.771633	10.780600
2515.349667	11.006900
2512.548167	11.200700
2516.676067	10.981400
2514.886767	11.195600
2519.438250	11.022000
2507.611783	11.779300
2519.200433	11.096800
2520.887583	11.016100
2524.664800	10.823400
2516.877033	11.346700
2513.503183	11.755300
2514.392350	11.761500
2522.875517	11.316500
2520.182467	11.504300
2512.396000	11.994000
2528.861700	11.053800
2535.318217	10.826600
2537.822383	10.717000
2532.198167	11.056100
2534.818833	10.931500
2530.424483	11.218000
2529.909217	11.268500
2524.345350	11.607000
2525.733400	11.539800
2548.561133	10.600900
2544.998417	10.819100
2542.684433	10.961800
2537.297867	11.286200
2555.811150	10.381500
2546.429083	10.911100
2546.208650	10.922100
2544.356650	11.043600
2542.031550	11.283600
2540.399950	11.496000
2545.812817	11.222600
2549.470167	11.035100
2550.376400	11.041200
2541.653850	11.665200
2542.815517	11.624900
2542.412467	11.675000
2545.517583	11.524300
2553.570217	11.067800
2554.297917	11.026100
2544.385983	11.630800
2553.272033	11.105500
2557.215767	10.871900
2548.760833	11.391100
2558.292767	11.051000
2553.200867	11.370800
2555.526650	11.269800
2558.590967	11.110400
2571.095000	10.556100
2556.008467	11.501900
2560.766400	11.279400
2557.076650	11.517000
2557.797433	11.624500
2561.364767	11.473700
2565.458117	11.247500
2559.546450	11.636700
2568.126583	11.146600
2566.146967	11.272700
2567.763783	11.177800
2566.628883	11.241400
2561.468500	11.644500
2568.483883	11.494600
2572.720983	11.266000
2574.996167	11.135000
2573.989000	11.223300
2571.966617	11.399900
2578.348250	11.020200
2579.237167	10.983200
2575.412967	11.211800
2577.514700	11.251800
2573.459850	11.495400
2577.607933	11.260900
2579.997733	11.147200
2571.189250	11.829600
2566.548817	12.159500
2580.309133	11.401000
2583.777967	11.207600
2581.772567	11.338700
2581.123300	11.395200
2576.305033	11.687500
2579.968867	11.495000
2587.803033	11.264500
2578.138650	11.933100
2585.528050	11.540100
2584.842667	11.660600
2584.651667	11.682200
2588.992100	11.407200
2585.908100	11.589600
2586.075133	11.609800
2590.628267	11.357000
2586.282267	11.732900
2590.903167	11.454800
2590.617667	11.491100
2593.695617	11.315900
2593.618300	11.482500
2601.703317	11.048000
2590.171500	11.802900
2597.941900	11.352000
2594.266667	11.598500
2599.147483	11.306500
2602.546983	11.370100
2595.913083	11.782300
2607.957700	11.070900
2602.684383	11.387800
2605.569050	11.325000
2609.864650	11.136300
2606.454217	11.338700
2606.916633	11.302300
2597.707533	11.870800
2604.694783	11.501800
2603.506567	11.659700
2606.223000	11.656500
2600.804400	12.018600
2609.922750	11.526900
2607.288233	11.707900
2611.586967	11.533400
2613.577267	11.486300
2613.375333	11.553700
2604.844467	12.067700
2608.030750	11.895900
2622.415083	11.073400
2614.531183	11.704600
2614.351083	11.750200
2612.411883	11.868700
2611.298767	11.956100
2610.708733	12.005800
2611.175967	11.988500
2608.125567	12.227300
2615.652833	11.783200
2616.010417	11.793200
2614.432650	11.912400
2634.669367	10.992500
2631.583917	11.296100
2624.729017	11.742500
2618.524883	12.105100
2628.229383	11.518000
2619.699133	12.062500
2627.109150	11.721600
2629.175350	11.700600
2635.069550	11.378700
2632.174533	11.557000
2630.829333	11.662900
2628.694533	11.859100
2628.039383	11.928100
2629.239183	11.865400
2625.067883	12.153400
2635.446083	11.557600
2636.225533	11.544700
2643.458733	11.324500
2641.080517	11.479100
2629.708383	12.184600
2640.227150	11.548500
2640.827433	11.532700
2633.122217	11.996300
2635.646050	12.095700
2641.337850	11.781900
2639.031450	11.942400
2637.352367	12.065300
2640.623350	11.950800
2652.924250	11.235900
2636.156300	12.258300
2644.141933	11.792200
2646.386183	11.684800
2648.121050	11.581500
2641.914450	12.188400
2645.499450	12.003300
2652.123300	11.637600
2654.626350	11.493600
2654.607383	11.543200
2659.839483	11.377600
2657.984167	11.494100
2648.293567	12.089900
2649.932683	12.028600
2657.649017	11.588900
2651.737717	11.957600
2650.237717	12.251300
2663.180233	11.545300
2657.622783	11.891500
2656.942483	11.935900
2655.900000	12.003900
2666.116400	11.406600
2670.827467	11.338700
2664.840250	11.700600
2664.203667	11.762900
2661.666567	11.936600
2659.985083	12.193300
2667.626433	11.770600
2665.464467	11.921900
2664.195383	11.997700
2669.961217	11.648600
2673.636717	11.425400
2661.053700	12.312000
2669.733350	11.897400
2658.078800	12.617700
2664.527733	12.266500
2674.797250	11.738100
2669.894767	12.156200
2670.844150	12.120900
2670.057900	12.180000
2667.183250	12.359700
2667.382117	12.357500
2674.166650	11.959200
2677.038783	12.013300
2672.896983	12.295900
2668.580183	12.575800
2674.990867	12.200600
2677.197300	12.210000
2682.145583	11.986600
2693.690317	11.307200
2680.708500	12.055200
2685.769167	11.756300
2683.709083	11.896900
2678.586650	12.279300
2677.536850	12.389400
2690.751317	11.628200
2682.673783	12.106900
2685.980283	11.917900
2685.989633	11.940700
2678.357617	12.618500
2685.749200	12.200700
2686.586133	12.155500
2684.508150	12.294000
2687.733550	12.168900
2690.447983	12.109000
2701.168267	11.514200
2701.100117	11.535200
2692.982767	12.016700
2697.972800	11.739300
2695.030850	11.959800
2699.938000	11.742900
2695.239200	12.045000
2699.655700	11.810700
2703.098350	11.637600
2710.395083	11.269300
2692.563533	12.357700
2698.467300	12.045000
2707.274500	11.536200
2699.986250	11.989800
2697.324617	12.160400
2703.960233	12.024700
2704.801467	11.993000
2703.232567	12.138500
2699.764000	12.360300
2705.648550	12.148200
2712.452533	11.809000
2700.608317	12.545000
2702.504567	12.434900
2702.156383	12.470800
2705.475283	12.297100
2704.350133	12.482800
2706.741917	12.474200
2715.650700	11.977200
2714.860333	12.038500
2714.792483	12.041500
2718.055033	11.879200
2719.795033	11.870200
2716.751967	12.213800
2714.565300	12.357000
2714.631533	12.376000
2708.812267	12.761300
2721.089717	12.098600
2717.902650	12.315000
2712.827317	12.626000
2710.521200	12.782400
2711.152350	12.761100
2721.786433	12.144700
2728.301717	12.078200
2725.629517	12.263300
2725.394067	12.301100
2719.579883	12.659800
2724.450233	12.502000
2734.964633	11.924500
2732.706967	12.070400
2723.514150	12.617100
2741.978083	11.525800
2731.364533	12.157900
2728.000433	12.468700
2732.435950	12.363000
2730.671067	12.481400
2728.284550	12.651900
2729.761300	12.593100
2741.790967	11.937200
2743.026333	11.842900
2735.598350	12.274500
2743.254200	11.831700
2734.617150	12.350400
2734.814017	12.368600
2732.688650	12.730800
2747.910417	11.865800
2742.484317	12.189500
2744.433150	12.082800
2734.736233	12.685900
2745.180550	12.064800
2744.129833	12.356200
2752.630800	11.858700
2750.587733	11.998900
2749.151050	12.097500
2749.542650	12.204900
2749.794483	12.269500
2752.657850	12.107100
2752.191867	12.141500
2757.841883	11.822200
2762.303017	11.546300
2746.860350	12.592200
2756.467983	12.022600
2754.681450	12.152400
2748.441733	12.531700
2753.636367	12.281300
2760.833867	11.991500
2760.462617	12.023300
2758.367083	12.152500
2764.804933	11.799400
2762.736400	11.932500
2754.760400	12.425700
2760.358967	12.293300
2759.206417	12.415700
2757.149550	12.584400
2759.750517	12.445400
2758.841983	12.525400
2761.574217	12.371900
2769.789750	12.122400
2776.436067	11.708600
2768.213000	12.226200
2766.766717	12.321200
2762.475867	12.671600
2766.643933	12.440800
2776.163817	11.905100
2770.456300	12.275400
2775.347133	12.013900
2770.422550	12.305100
2781.554667	11.905100
2778.902983	12.053200
2773.361733	12.392500
2768.089467	12.739400
2775.750433	12.341200
2773.944183	12.596800
2775.808367	12.495200
2781.081867	12.196400
2777.439267	12.446600
2779.004633	12.376600
2777.151950	12.513600
2781.774500	12.461100
2781.833717	12.463700
2788.741017	12.057200
2790.748800	11.942700
2785.813600	12.319200
2782.041983	12.562300
2781.401517	12.636800
2791.248617	12.076700
2789.268767	12.196100
2782.999733	12.568300
2791.361283	12.253900
2787.940967	12.546800
2787.705300	12.594900
2788.244267	12.574700
2796.240233	12.116800
2794.919717	12.200000
2798.616100	12.126900
2803.570017	11.888600
2798.005500	12.241500
2797.215717	12.314900
2804.486850	11.934900
2791.368683	12.874300
2803.002767	12.210800
2802.749933	12.237100
2801.530000	12.313500
2796.104867	12.659300
2803.617117	12.248900
2807.302450	12.198900
2804.162133	12.393700
2808.514983	12.128500
2808.615583	12.111400
2808.721917	12.261800
2805.074033	12.518500
2806.956717	12.434300
2803.144983	12.662800
2809.728267	12.297500
2808.807417	12.365300
2817.701667	11.917700
2810.133017	12.404600
2808.511717	12.527300
2805.438533	12.756100
2810.060167	12.563600
2809.759167	12.636500
2815.983550	12.311400
2816.515600	12.287700
2809.083850	12.742200
2811.567067	12.624200
2821.017583	12.314200
2824.392683	12.123700
2820.410733	12.377200
2819.430100	12.443400
2818.311883	12.532900
2821.388717	12.490100
2819.424867	12.642200
2810.971200	13.188000
2825.683850	12.333300
2827.477217	12.253400
2829.341967	12.147200
2825.825933	12.385900
2825.084417	12.452900
2831.639150	12.050700
2824.142733	12.501100
2824.832633	12.716200
2812.529467	13.498100
2820.825400	13.160400
2822.930050	13.102500
2829.693100	12.737100
2828.163500	12.830700
2826.429650	12.969900
2830.457917	12.732800
2832.164350	12.646200
2830.144117	12.778100
2830.730567	12.880700
2834.934067	12.654500
2841.381350	12.298500
2838.773267	12.473000
2836.811600	12.683100
2837.891800	12.729000
2839.849417	12.643400
2846.377283	12.271000
2845.411917	12.336800
2839.304983	12.730900
2838.883533	12.792400
2839.957467	12.753200
2839.041600	12.898200
2846.871483	12.690700
2845.466183	12.811300
2851.051467	12.538400
2854.811683	12.319900
2842.036417	13.097900
2846.874767	12.816200
2847.580083	12.799900
2838.974167	13.332500
2846.947517	13.043000
2844.729567	13.259000
2852.378617	12.816500
2846.229483	13.200700
2850.777900	12.969900
2852.865067	12.845600
2855.235000	12.714300
2851.634150	12.949800
2860.153500	12.754800
2853.963833	13.171300
2851.833417	13.358000
2857.581700	12.999600
2855.167017	13.181900
2859.232667	13.015100
2849.756100	13.597800
2860.880267	12.984200
2856.524333	13.275100
2856.920267	13.272800
2866.748100	12.753300
2863.391033	13.073200
2865.587400	12.984000
2865.870850	12.990000
2858.086050	13.445400
2869.989850	12.733800
2862.415800	13.206900
2860.823283	13.491100
2870.421683	12.975100
2868.273733	13.103500
2867.213683	13.185700
2871.315100	12.969900
2870.168783	13.027000
2879.175417	12.504500
2874.570233	12.794500
2884.096983	12.462700
2877.915417	12.918500
2879.725750	12.819300
2874.225700	13.158000
2881.252033	12.751600
2881.054450	12.792900
2884.976283	12.523300
2887.172150	12.381900
2885.770767	12.566900
2885.461400	12.814500
2883.379350	12.959400
2877.202533	13.365700
2878.259533	13.315000
2890.121217	12.608000
2890.948883	12.566800
2889.549183	12.648700
2890.522550	12.650700
2883.540750	13.372800
2887.004933	13.165600
2889.506483	13.029400
2894.615533	12.775000
2900.050067	12.626900
2893.719583	13.015300
2897.603000	12.775200
2896.806717	12.825800
2895.739717	13.010300
2895.113833	13.092100
2897.576783	12.958300
2897.431850	12.977100
2901.702000	12.729000
2893.817400	13.208700
2880.774383	14.010100
2898.149533	12.995500
2890.843750	13.447200
2894.497350	13.234200
2901.334467	13.091300
2893.304717	13.767500
2889.791050	14.020800
2896.155133	13.669900
2890.608983	14.015200
2909.003983	12.943600
2906.784683	13.071100
2910.615433	12.837400
2899.135567	13.601000
2908.954433	13.301800
2909.524217	13.310000
2912.206650	13.178700
2911.042350	13.266000
2918.557217	12.997100
2919.660983	12.928300
2917.184250	13.057500
2914.406200	13.231200
2914.279250	13.295400
2910.093733	13.573900
2916.804000	13.211100
2927.531700	12.590700
2917.842867	13.184300
2917.250383	13.247200
2921.207717	13.023200
2923.391800	12.897300
2909.911783	13.735600
2921.762567	13.021700
2916.075267	13.666700
2921.340950	13.470600
2930.835383	12.915700
2928.950200	13.033500
2926.737017	13.185800
2922.959433	13.433500
2931.159200	12.945000
2925.185333	13.270900
2922.429783	13.522300
2926.379667	13.476800
2923.023650	13.748100
2927.835167	13.467500
2931.928467	13.236500
2939.058883	12.946900
2922.293433	13.984600
2933.197833	13.375000
2938.402083	13.097800
2946.247500	12.798600
2950.393367	12.590900
2938.956650	13.277400
2934.594750	13.548600
2945.093283	12.945100
2943.028700	13.090500
2941.322417	13.205900
2939.771433	13.279300
2938.995333	13.561900
2941.293700	13.521300
2952.169150	12.873000
2946.697967	13.215800
2954.025633	12.793300
2949.034900	13.113300
2950.814983	13.004500
2953.456567	12.851300
2947.549883	13.433500
2958.947233	12.872200
2956.525683	13.063900
2953.793067	13.262300
2957.496650	13.059000
2951.450350	13.444500
2956.259967	13.247900
2962.176300	12.992400
2963.508367	12.942800
2964.946500	12.847500
2960.387783	13.162300
2963.523250	13.024500
2960.831500	13.204200
2965.667350	12.945300
2959.545317	13.327400
2973.465400	12.503100
2963.920267	13.091300
2961.435300	13.262700
2961.238367	13.294400
2960.429883	13.658800
2969.693867	13.178900
2964.954633	13.494100
2966.878783	13.387300
2955.469017	14.097500
2967.748100	13.364400
2970.387083	13.240000
2967.900167	13.412600
2974.795017	13.252700
2963.914983	14.003800
2971.571833	13.631800
2973.701917	13.561400
2973.098750	13.629000
2971.070417	13.792700
2976.358500	13.506600
2978.722233	13.380700
2978.846833	13.378600
2984.150650	13.076700
2976.340983	13.634200
2982.490900	13.509000
2984.504483	13.406200
2982.577983	13.564900
2981.461750	13.647300
2979.434350	13.816200
2986.491167	13.398200
2993.499750	12.971400
2989.865300	13.198200
2983.239367	13.608200
2987.625517	13.349000
2992.896933	13.360600
2991.320100	13.475100
2988.725800	13.645200
2992.920200	13.387200
2991.076150	13.710900
2991.321850	13.724100
2996.690017	13.429700
3001.641550	13.134300
3005.499050	13.041600
3005.320817	13.076900
2993.777167	13.782800
2999.376583	13.466200
2996.851517	13.676300
2998.061750	13.659600
3002.723933	13.434400
2991.977117	14.082500
2996.392833	13.823200
2994.877267	13.969400
3006.504933	13.270300
3000.342133	13.649800
2996.260717	14.001200
3015.041367	13.177700
3011.144583	13.448800
3009.315583	13.573000
3009.127917	13.582700
3011.025333	13.503100
3007.614800	13.719900
3008.438350	13.677900
3009.569200	13.614000
3015.654550	13.518000
3014.183867	13.686200
3014.137767	13.726400
3024.728983	13.102300
3019.587100	13.427400
3022.705167	13.250300
3014.013283	13.796800
3015.264900	13.719900
3015.279333	13.728400
3017.447483	13.614400
3021.646017	13.520600
3024.476367	13.374800
3017.461933	13.831300
3022.045600	13.572300
3028.739283	13.245400
3023.826850	13.634100
3028.103200	13.399200
3031.531900	13.210800
3020.547350	13.862700
3022.500400	13.788900
3026.750067	13.611800
3030.705283	13.565200
3031.786733	13.490500
3029.264233	13.674700
3033.012483	13.466500
3023.751200	14.046300
3035.607783	13.361800
3033.585250	13.490400
3037.836467	13.248500
3037.442933	13.522900
3042.343500	13.246500
3039.110933	13.441000
3043.769450	13.191000
3038.607850	13.726500
3046.796183	13.306600
3037.634850	13.875000
3040.373567	13.736600
3038.092133	13.887700
3039.073983	13.826500
3038.578550	13.876500
3042.390100	13.682400
3044.008267	13.693700
3053.084367	13.230200
3049.500117	13.464200
3048.434267	13.563200
3046.099883	13.794100
3038.615650	14.377500
3049.194633	13.803100
3047.415200	13.952100
3048.794783	13.889500
3052.924817	13.655300
3050.893083	13.802200
3045.036983	14.195500
3049.843800	13.920600
3050.022883	13.917100
3050.065617	13.980500
3057.273350	13.907700
3055.123733	14.071300
3054.439067	14.117900
3067.181000	13.378200
3061.765167	13.806200
3066.487533	13.576300
3070.597033	13.310200
3063.302567	13.750700
3071.931983	13.268800
3068.209900	13.495200
3061.172500	13.917300
3065.179667	13.682900
3058.061500	14.371200
3069.079717	13.814300
3069.141917	13.851800
3062.557717	14.266700
3056.828667	14.651900
3064.277600	14.239500
3063.486467	14.295200
3061.369233	14.442100
3070.314083	14.033800
3076.897783	13.912900
3073.800633	14.119300
3078.925983	13.832200
3082.710783	13.636000
3076.084600	14.187900
3084.670967	13.706600
3090.032917	13.403300
3083.024750	13.821300
3076.872683	14.212300
3084.109233	13.782100
3082.461017	14.096000
3083.875183	14.070100
3088.738667	13.793300
3087.172333	13.891000
3086.711333	13.942300
3095.501500	13.426200
3090.847233	13.711900
3094.962967	13.444400
3092.132917	13.881200
3096.073017	13.752500
3092.511117	14.000000
3096.945500	13.732500
3083.721850	14.552100
3093.857283	13.961800
3094.581383	13.931200
3085.270217	14.485100
3087.463550	14.716500
3091.877500	14.490600
3093.802933	14.384800
3089.922233	14.634400
3100.117000	14.103300
3104.798517	13.953200
3100.735350	14.237400
3097.351717	14.452700
3098.856967	14.386400
3097.189000	14.533800
3098.175600	14.511900
3103.125350	14.435100
3098.936150	14.702700
3104.370683	14.395900
3110.197533	14.059300
3115.786100	13.849500
3110.850800	14.164500
3108.704750	14.287500
3101.657283	14.723500
3115.911367	13.868000
3115.285200	13.910700
3112.952200	14.076600
3109.754567	14.276600
3104.827767	14.582600
3113.102417	14.094500
3109.804250	14.547600
3114.830933	14.407000
3121.681483	14.031100
3123.456150	13.903200
3117.856350	14.259300
3117.648333	14.283700
3115.537600	14.488500
3120.645833	14.327800
3124.145333	14.134300
3134.533150	13.503600
3121.039767	14.332700
3119.486700	14.448600
3126.350450	14.058600
3123.669467	14.230100
3126.413933	14.137900
3136.983783	13.744900
3132.907033	14.024800
3134.023733	13.973800
3138.722550	13.708500
3135.519950	14.031900
3138.030750	13.902600
3139.194450	13.853700
3132.723300	14.260500
3138.573033	13.925500
3129.987883	14.456800
3140.050817	14.068700
3143.193900	13.931100
3134.824983	14.460400
3136.809067	14.367200
3132.865017	14.643800
3130.115200	14.805600
3140.562433	14.197600
3139.228200	14.295000
3136.859767	14.442800
3138.555717	14.356700
3136.956767	14.617700
3142.183900	14.434500
3148.402117	14.129000
3148.167350	14.119200
3148.463867	14.108000
3152.004767	13.895600
3154.261683	13.850200
3153.869367	14.124500
3157.303450	13.917900
3151.719467	14.264000
3150.769800	14.345100
3157.992183	14.059300
3159.846533	13.969600
3160.660233	13.946500
3160.086217	13.982900
3149.976467	14.610200
3158.446583	14.104300
3152.469367	14.648000
3164.246633	13.990600
3154.865217	14.553500
3155.719583	14.525200
3152.615617	14.758400
3155.630817	14.554700
3166.070500	13.923300
3162.968133	14.107000
3162.025717	14.392100
3169.998283	14.072200
3164.834733	14.392900
3158.695267	14.765000
3159.386583	14.761000
3167.177517	14.289500
3166.032133	14.369500
3168.822650	14.231700
3168.328600	14.374800
3172.797150	14.362800
3170.456783	14.526100
3175.543083	14.231500
3178.746700	14.093700
3177.174150	14.327100
3173.133017	14.586500
3188.924983	13.642300
3180.754917	14.133500
3175.813033	14.445700
3174.714950	14.510400
3190.701417	13.752800
3191.753383	13.766500
3187.879683	13.995700
3183.258383	14.280400
3178.468133	14.580100
3183.153500	14.306100
3185.102000	14.218200
3175.387517	14.831900
3177.099733	15.045100
3178.627933	15.046000
3188.296800	14.501400
3192.353033	14.272600
3195.110967	14.118500
3190.753783	14.395600
3197.031700	14.005800
3195.858017	14.094200
3198.328983	14.094100
3193.970583	14.482000
3198.718100	14.205900
3193.733767	14.502500
3193.198867	14.607800
3198.498283	14.393200
3201.787483	14.209900
3199.552250	14.351400
3204.333167	14.066900
3205.597517	13.987400
3202.876000	14.174700
3204.828833	14.234500
3194.393317	14.906600
3205.333483	14.256100
3203.582233	14.366800
3194.581433	14.914600
3187.347500	15.347400
3193.672933	14.997400
3198.245367	14.749400
3193.927517	15.303200
3198.556750	15.127500
3204.059467	14.821400
3203.856200	14.843100
3211.074717	14.452100
3202.038067	15.003200
3211.531250	14.450700
3204.109667	14.912600
3203.779650	15.161400
3209.445633	14.930200
3216.325100	14.552700
3211.550317	14.833700
3215.911867	14.605400
3217.408883	14.536000
3216.107283	14.613100
3222.258333	14.267200
3222.057200	14.269200
3218.861700	14.474700
3218.618400	14.594100
3220.988483	14.761900
3221.138100	14.808600
3223.828917	14.677400
3222.038750	14.825700
3230.288333	14.394100
3229.382367	14.467700
3229.602750	14.474100
3231.190050	14.397900
3235.450133	14.276500
3226.328550	14.858100
3232.902983	14.463400
3229.436617	14.683400
3249.215767	13.481300
3232.789117	14.473400
3229.522117	14.694800
3229.519183	14.701600
3232.038083	14.863300
3238.534367	14.537600
3241.984767	14.359100
3234.073317	14.849300
3239.165550	14.623200
3242.241183	14.558500
3239.790417	14.726300
3246.417900	14.346000
3240.187033	14.731300
3240.187983	14.784400
3241.781283	14.730700
3239.197683	14.989900
3241.856200	14.871000
3243.992833	14.774200
3239.589100	15.049500
3234.581733	15.400900
3234.426300	15.426300
3250.153100	14.511900
3244.044767	14.889500
3249.102967	14.888600
3249.222967	14.948000
3246.494800	15.131100
3253.272983	14.747200
3249.661533	14.964700
3251.238250	14.861100
3257.671367	14.494400
3255.473283	14.668300
3249.058333	15.071200
3247.825667	15.143900
3251.560500	15.197100
3257.490017	15.012500
3262.255933	14.749300
3256.337250	15.119400
3252.957183	15.341500
3252.101133	15.433900
3253.563917	15.358400
3251.224717	15.556700
3258.639800	15.327300
3275.771833	14.442100
3269.115383	14.854600
3271.364333	14.733700
3274.937850	14.538900
3276.527667	14.459900
3269.969333	14.854900
3267.568183	15.019600
3270.816000	14.850600
3276.537483	14.839900
3271.621817	15.159500
3273.751833	15.040000
3264.981183	15.571900
3276.898967	15.026300
3277.536500	15.053400
3266.325867	15.741500
3286.394983	14.565700
3282.992350	14.789100
3278.902733	15.053200
3278.365300	15.172800
3279.554583	15.133600
3283.964217	14.885000
3286.448167	14.761700
3290.483267	14.512400
3282.198417	15.017900
3279.820733	15.180100
3276.910567	15.353900
3291.164450	14.700000
3292.779350	14.748600
3298.393850	14.433900
3295.271783	14.647600
3291.296517	14.883500
3296.325183	14.595100
3285.984633	15.196900
3289.825400	15.006000
3295.234617	14.718200
3304.652033	14.437000
3300.652933	14.694700
3301.443800	14.674500
3294.154150	15.142500
3299.387233	14.983000
3302.006150	14.882100
3299.668283	15.026500
3298.170000	15.142800
3306.495933	14.670100
3299.443800	15.111300
3291.907517	15.626300
3296.870683	15.390400
3301.238150	15.165300
3304.166750	15.020700
3301.310617	15.211100
3302.021750	15.193800
3293.693350	15.730500
3297.577867	15.514400
3297.096917	15.642200
3300.254433	15.563800
3312.282900	14.874600
3307.805733	15.157000
3297.697800	15.803400
3305.267467	15.383900
3296.533817	15.978500
3309.582317	15.231800
3310.176100	15.344400
3314.635517	15.299300
3314.851117	15.317900
3322.241067	14.899100
3320.269017	15.047600
3318.714617	15.131300
3308.859500	15.762000
3322.395733	14.984800
3309.204017	15.788300
3321.049300	15.370800
3320.319283	15.478000
3324.204317	15.317000
3329.692050	15.021900
3327.562167	15.154700
3321.560317	15.529100
3319.144117	15.738500
3326.726117	15.299300
3326.974833	15.294700
3318.939950	15.788400
3323.850733	15.859900
3325.865767	15.770000
3327.960783	15.656800
3323.826167	15.907400
3329.834833	15.665800
3342.582583	14.977300
3332.662617	15.584900
3328.819633	15.827200
3337.516183	15.351100
3330.507267	15.797900
3333.523433	15.636100
3339.316517	15.279200
3335.734733	15.512200
3334.870350	15.702000
3345.268617	15.118100
3336.900267	15.642200
3343.775417	15.244700
3341.313367	15.408800
3343.262950	15.311100
3343.909150	15.295500
3343.731450	15.331200
3343.823917	15.692000
3345.860100	15.606300
3341.136600	15.935400
3345.803150	15.693300
3351.803433	15.461200
3354.284967	15.377300
3346.475717	15.868400
3355.046733	15.380800
3352.837717	15.537500
3350.101667	15.713600
3350.631833	15.755800
3356.869333	15.586600
3358.384433	15.536800
3357.151083	15.616000
3353.540083	15.865900
3357.507683	15.659500
3359.676750	15.548700
3354.895400	15.843900
3355.482417	15.845300
3364.529067	15.507800
3358.273783	15.918400
3361.974100	15.729900
3364.023483	15.614200
3356.947000	16.060500
3357.309183	16.060600
3361.698767	15.783800
3362.575400	15.735600
3365.874167	15.738200
3369.671683	15.524800
3374.959133	15.220600
3373.049450	15.350400
3376.793767	15.304700
3378.704717	15.234500
3383.279850	14.953500
3372.469067	15.615800
3369.925917	15.814100
3382.247633	15.098800
3374.953500	15.648600
3369.410933	16.124500
3360.516733	16.738600
3369.069417	16.265300
3376.751150	15.829200
3375.689850	15.913500
3384.474600	15.430500
3382.982383	15.628600
3385.519100	15.505500
3383.866683	15.609400
3377.702100	15.993000
3385.604000	15.576600
3381.185383	15.849400
3387.731733	15.482800
3382.997733	15.802900
3392.446250	15.525900
3385.551383	16.003900
3378.682667	16.474100
3384.299983	16.185100
3386.491350	16.076400
3394.397433	15.624400
3385.355150	16.186500
3383.689600	16.319700
3400.642933	15.513700
3402.918483	15.410200
3390.988700	16.115100
3385.845083	16.467100
3389.513967	16.282700
3394.069150	16.035600
3390.986767	16.344800
3394.341700	16.257300
3398.207100	16.050900
3395.056917	16.267700
3404.122633	15.806500
3402.374500	16.032600
3397.395067	16.382900
3414.479467	15.398300
3406.177367	15.902600
3401.733717	16.226000
3407.383033	15.929500
3409.221367	16.017200
3408.429317	16.105700
3413.899550	15.801900
3410.674483	16.007500
3406.511200	16.263000
3414.073717	15.850700
3416.708667	15.705800
3410.941100	16.083000
3412.714833	15.987100
3414.748917	15.884600
3422.916517	15.617000
3419.111483	15.951700
3433.409783	15.108100
3424.659217	15.613700
3422.316933	15.767200
3419.098500	15.985800
3422.325633	15.949000
3422.505667	15.941300
3434.765283	15.220000
3430.707667	15.493400
3418.678767	16.280900
3429.321667	15.716900
3420.152017	16.315400
3420.016950	16.393500
3426.728217	16.032200
3423.925550	16.237500
3432.864417	15.768500
3435.801600	15.738600
3429.695317	16.135400
3425.529017	16.428800
3419.935100	16.818000
3435.175100	15.943800
3436.118833	15.904600
3433.498367	16.077200
3441.007950	15.651600
3428.208250	16.697100
3429.772517	16.678100
3434.835533	16.405300
3433.638700	16.513500
3439.135600	16.228800
3438.826250	16.227000
3445.314733	15.842200
3443.459017	15.985700
3446.220400	16.094100
3443.083083	16.388800
3438.065333	16.734700
3448.305833	16.157500
3444.840350	16.362300
3455.320067	15.734000
3448.174267	16.158800
3451.637950	15.987000
3450.723250	16.025100
3448.589683	16.153000
3454.013483	15.966700
3461.431917	15.806300
3456.637917	16.137200
3448.151400	16.701300
3455.025133	16.343200
3457.812667	16.168400
3457.364333	16.241500
3456.118500	16.435500
3455.100683	16.543300
3456.832583	16.457200
3458.302450	16.388100
3458.655750	16.400100
3460.272067	16.319300
3460.762733	16.320400
3463.159767	16.211300
3473.928367	15.900500
3468.905717	16.222100
3466.263017	16.416500
3464.223950	16.574700
3474.433733	16.072300
3474.435167	16.138400
3468.405100	16.531200
3474.305483	16.206700
3474.459450	16.206000
3478.039067	15.986300
3479.233383	15.939400
3473.204033	16.328200
3478.060783	16.067800
3474.327017	16.352900
3468.883150	16.776900
3474.788267	16.665500
3481.257683	16.299700
3480.025383	16.382500
3481.561000	16.314900
3485.209950	16.117200
3478.846867	16.505000
3477.748900	16.590300
3485.504683	16.166500
3488.797833	15.951400
3481.165717	16.390700
3479.855717	16.481900
3477.599117	16.617800
3478.788100	16.567200
3483.447083	16.278100
3486.218767	16.655600
3490.253017	16.479500
3494.198950	16.335900
3490.474650	16.561200
3495.597167	16.324100
3497.448350	16.234200
3495.832367	16.310900
3498.901100	16.117200
3494.283900	16.401900
3492.732467	16.509200
3497.685317	16.347200
3495.564567	16.582100
3495.020083	16.626700
3494.468117	16.667000
3501.757200	16.248000
3497.745900	16.476000
3504.263867	16.179200
3497.258917	16.752200
3498.398950	16.713900
3496.674033	16.813300
3506.942217	16.235600
3500.852733	16.763800
3508.197567	16.331900
3497.766150	16.985100
3497.560767	17.022500
3500.598383	16.883200
3509.094733	16.383100
3502.941550	16.760100
3511.269067	16.295600
3508.986233	16.707700
3505.341400	16.992000
3517.160017	16.348700
3513.510017	16.589300
3520.058617	16.223900
3521.256917	16.159100
3518.055383	16.471300
3522.923483	16.235500
3515.669183	16.720900
3516.906833	16.687300
3519.027683	16.575100
3520.532417	16.505300
3516.827150	16.737300
3522.897883	16.395400
3526.060683	16.499800
3523.068350	16.732500
3532.870867	16.157300
3523.742250	16.721400
3524.979850	16.677300
3525.686817	16.710800
3526.632667	16.668500
3529.707117	16.483700
3531.478133	16.365100
3520.390350	17.040000
3524.669617	16.815200
3524.976550	16.818000
3524.955650	16.837200
3535.988600	16.487700
3524.906517	17.206100
3533.266217	16.795400
3533.931650	16.781100
3533.489717	16.820300
3528.915617	17.150900
3534.609167	16.958900
3542.464200	16.527300
3542.649417	16.514300
3536.884750	16.883700
3541.218467	16.699100
3541.164850	16.669800
3532.882267	17.180900
3537.327117	16.947500
3538.978550	17.179500
3540.522333	17.115400
3543.439283	16.964500
3546.362717	16.808900
3548.111617	16.745900
3545.020217	16.982300
3544.565050	17.068200
3554.653350	16.507500
3554.424300	16.512000
3555.131633	16.476700
3556.216233	16.411600
3557.910217	16.327700
3555.158467	16.524200
3558.790933	16.309300
3550.413567	16.852700
3559.145667	16.656200
3552.351183	17.104900
3554.144150	17.060700
3557.848767	16.873400
3557.893617	17.022500
3554.092600	17.313900
3566.463050	16.611300
3571.790933	16.283500
3568.425033	16.455700
3568.897967	16.441100
3564.747450	16.689300
3559.009550	17.046300
3573.479383	16.489300
3563.765083	17.131000
3570.822267	16.729700
3563.898667	17.179100
3567.630500	17.071500
3565.863517	17.279300
3566.029250	17.283900
3576.846383	16.645900
3576.675083	16.657900
3572.310500	16.941600
3578.856150	16.539300
3578.089567	16.587200
3571.634733	17.249800
3576.514300	17.049600
3581.667100	16.770600
3579.715183	16.977400
3581.513283	16.922200
3573.305583	17.443900
3579.133383	17.081500
3577.787267	17.187500
3579.623817	17.104400
3586.367033	16.726600
3579.707733	17.131300
3571.668733	17.688100
3577.985733	17.327200
3574.681650	17.548200
3579.834350	17.241600
3595.145167	16.682900
3594.421817	16.816700
3592.936667	16.880900
3589.777933	17.068300
3593.205033	16.857400
3584.550950	17.385300
3577.854400	17.853000
3581.877000	17.688600
3593.096017	17.085800
3589.381617	17.318000
3592.233317	17.192900
3592.673917	17.208500
3595.104233	17.087200
3597.527983	16.955800
3598.856867	17.057300
3602.313650	17.032500
3599.175267	17.255000
3604.887583	16.950100
3602.637883	17.121700
3613.115383	16.638100
3607.440517	17.005700
3604.749683	17.235400
3604.845583	17.250100
3599.116567	17.620400
3609.969817	16.981400
3611.344300	17.044200
3608.111867	17.297000
3603.435533	17.585800
3612.480000	17.046900
3595.221400	18.107400
3600.065683	17.818600
3613.974150	17.018700
3613.109000	17.074200
3609.188883	17.545300
3612.637467	17.462000
3613.585983	17.429200
3612.831333	17.492200
3622.238217	16.979300
3619.250133	17.173600
3620.164683	17.108200
3619.088033	17.185300
3622.673650	17.102100
3628.712667	17.013800
3621.168483	17.445400
3620.676650	17.497500
3620.554350	17.530800
3615.220633	17.875900
3618.758767	17.652800
3634.457133	16.914700
3625.907050	17.447100
3636.731750	16.813800
3631.508667	17.131400
3632.860867	17.146100
3626.563983	17.571700
3631.124000	17.314500
3639.533917	16.849700
3637.535533	16.975600
3631.712433	17.341300
3634.643900	17.241300
3628.476567	17.663600
3636.842717	17.193500
3625.737633	17.907400
3627.385917	17.814500
3626.270917	17.916500
3634.209883	17.491900
3642.384517	16.994000
3640.189317	17.307500
3643.989883	17.260300
3638.964833	17.596000
3636.686833	17.747500
3644.075400	17.323200
3645.222767	17.285000
3645.311883	17.277400
3648.310950	17.123400
3644.089317	17.419700
3646.760767	17.375000
3653.969900	16.989600
3641.966850	17.745000
3644.703317	17.616500
3640.880317	17.914700
3647.596317	17.510300
3644.775933	17.735500
3652.556867	17.320400
3656.623200	17.415000
3659.853867	17.260700
3666.966467	16.853300
3662.324250	17.145900
3654.358700	17.783700
3659.881817	17.471600
3656.017433	17.734300
3661.080050	17.457000
3667.855617	17.150900
3658.989883	17.781400
3666.092133	17.380900
3663.322383	17.598700
3666.072183	17.443000
3664.983100	17.542500
3664.910300	17.652900
3660.927467	18.082100
3658.846717	18.211700
3666.991767	17.752700
3671.290600	17.548800
3666.262983	18.007000
3667.629750	17.963100
3673.559350	17.619600
3672.757233	17.675500
3667.952500	17.975400
3668.515900	17.963100
3669.354950	18.115200
3673.653667	17.915900
3668.923867	18.224600
3675.981650	17.836500
3678.201500	17.722500
3679.335533	17.661100
3683.782133	17.606500
3686.273700	17.496300
3688.932050	17.372700
3690.055367	17.307500
3688.802833	17.413900
3683.788783	17.737600
3677.006467	18.199100
3680.591233	17.995300
3692.030000	17.340300
3691.187717	17.405600
3686.045567	17.808800
3692.142417	17.601200
3686.232517	17.974400
3687.822600	17.898000
3687.936617	17.906900
3689.366733	17.843200
3691.017883	17.763100
3698.760367	17.336300
3691.631000	17.766600
3689.251500	17.912400
3692.068667	17.771000
3697.565833	17.809300
3701.535517	17.594000
3701.059333	17.630200
3693.843900	18.090000
3702.105383	17.712700
3699.309333	17.965600
3701.558150	17.832000
3710.582817	17.321900
3695.267450	18.248400
3697.318450	18.132900
3707.004317	17.648900
3700.699700	18.090900
3708.936233	17.614300
3703.837117	17.930600
3705.836900	17.857800
3701.330367	18.142400
3706.250783	17.872300
3704.332600	17.992800
3709.205733	17.830600
3717.733200	17.571600
3714.778783	17.790700
3715.565050	17.769000
3711.797133	18.018400
3715.540317	17.813900
3717.112633	17.722900
3718.909550	17.627400
3725.934550	17.214000
3716.630783	18.079600
3714.347183	18.237100
3712.914550	18.380400
3727.814483	17.514700
3724.795517	17.856200
3728.533550	17.670000
3736.514700	17.234100
3729.298933	17.650000
3726.281650	17.806200
3721.488533	18.092500
3736.018783	17.482300
3735.071683	17.551000
3738.044000	17.371200
3735.566167	17.533700
3730.667183	18.052300
3731.265550	18.026400
3731.363633	18.055300
3737.564400	17.670900
3742.521817	17.443100
3739.644850	17.740200
3739.457600	17.772900
3743.668383	17.522500
3748.222233	17.282500
3742.827200	17.769000
3743.790583	17.727100
3743.031900	17.791200
3743.256767	17.783000
3742.058950	17.886000
3741.331600	17.951400
3741.568800	17.944500
3736.200517	18.284000
3742.059717	17.955200
3743.238983	17.885200
3736.741900	18.623100
3737.515150	18.678600
3745.976917	18.203300
3743.317317	18.385700
3741.325067	18.533900
3745.071383	18.344200
3745.309200	18.354600
3749.429500	18.108000
3756.665650	17.863500
3749.129767	18.400100
3746.674133	18.561700
3755.312700	18.055800
3754.899800	18.140400
3753.237917	18.381200
3759.981067	17.997200
3765.633700	17.658600
3765.174200	17.725200
3761.314600	18.082500
3767.851083	17.724100
3758.392917	18.296000
3756.036300	18.456600
3752.441417	18.686900
3754.812900	18.557400
3764.332183	17.989300
3769.097800	17.708100
3765.912217	17.886200
3756.695983	18.431800
3766.981817	18.212300
3772.985767	17.866700
3778.448800	17.538900
3770.151633	18.041800
3765.656567	18.452600
3769.300783	18.278500
3771.094517	18.190700
3770.346267	18.263300
3776.064867	18.051500
3771.950967	18.372200
3773.269300	18.326400
3772.976100	18.376200
3770.589967	18.550100
3779.542133	18.051100
3778.476750	18.125700
3778.457400	18.159600
3773.240583	18.477100
3772.571817	18.530600
3774.855717	18.462200
3783.520567	18.117200
3773.697500	18.731100
3787.105200	17.957100
3791.825833	17.685100
3782.035483	18.285700
3781.821167	18.343400
3783.322967	18.464300
3779.905933	18.762700
3786.483367	18.488900
3786.787667	18.503300
3797.250667	17.897300
3793.111033	18.154600
3799.131333	17.980900
3789.540583	18.548200
3797.312950	18.125700
3790.534717	18.538100
3796.302733	18.304000
3793.625067	18.526700
3794.107917	18.527300
3798.677567	18.298100
3798.487017	18.332000
3794.016083	18.608200
3798.148950	18.422100
3797.594367	18.555200
3800.766717	18.408200
3804.863817	18.175100
3806.478283	18.109600
3800.096750	18.508200
3797.331517	18.672800
3801.700183	18.394000
3804.234200	18.279000
3808.324183	18.448000
3811.190883	18.320200
3810.710867	18.359600
3811.017283	18.375700
3806.985667	18.757700
3811.997450	18.489900
3818.058217	18.138800
3816.538567	18.257600
3822.790683	17.907400
3818.287850	18.186000
3817.685817	18.445700
3819.535083	18.352600
3819.804100	18.312300
3818.734950	18.372900
3822.832450	18.271800
3823.606050	18.259500
3820.105683	18.487600
3816.098400	18.755100
3818.763150	18.614400
3823.902067	18.323900
3825.149667	18.274700
3823.580433	18.377500
3822.998850	18.471900
3821.428733	18.615700
3824.537783	18.471100
3823.465050	18.543900
3831.449000	18.083700
3826.844033	18.377500
3824.791467	18.668000
3832.625817	18.402800
3833.836250	18.346800
3834.056850	18.346800
3837.440750	18.198300
3832.506900	18.510300
3832.105017	18.547100
3838.612483	18.386500
3839.171050	18.384300
3837.188800	18.526200
3830.634450	18.898200
3840.657033	18.426400
3837.134733	18.726400
3843.696233	18.388000
3845.180700	18.281400
3838.587100	18.684300
3842.965817	18.447200
3845.158033	18.460600
3847.210900	18.417600
3847.937933	18.388000
3845.227067	18.593000
3851.132350	18.265200
3845.642317	18.605000
3841.099900	18.879600
3844.264383	18.720100
3849.597517	18.536300
3855.601183	18.378700
3848.899100	18.798600
3850.815733	18.714400
3852.365533	18.660700
3855.522333	18.473800
3857.163467	18.412400
3858.614283	18.329200
3856.652600	18.472800
3853.303350	18.998700
3860.034067	18.602300
3857.024567	18.817400
3854.353467	18.965600
3862.341333	18.659500
3863.169150	18.678900
3861.705783	18.791200
3860.647650	18.869100
3858.192450	19.048800
3861.652800	18.837300
3857.798217	19.114400
3857.159433	19.178800
3864.931650	18.965700
3872.815517	18.584600
3866.599983	19.006900
3868.994133	18.888700
3862.016850	19.342500
3862.956017	19.249400
3874.039917	18.623600
3871.806950	18.769500
3881.928900	18.279000
3876.283917	18.714500
3882.329467	18.371000
3880.848217	18.459500
3876.570800	18.766500
3875.145383	19.007500
3879.799350	18.770400
3885.181550	18.460500
3883.335267	18.586400
3875.779917	19.055600
3882.699917	18.663500
3885.115917	18.609500
3883.822467	18.679100
3882.154283	18.809200
3877.541800	19.131900
3878.529900	19.122300
3882.152300	18.902700
3876.205750	19.313700
3888.293800	18.604200
3887.459933	18.919000
3892.655450	18.726000
3883.968100	19.312500
3895.142050	18.694800
3886.615033	19.220200
3898.923550	18.495900
3895.417717	18.711500
3893.904267	18.821000
3893.545117	18.968900
3893.120817	19.132700
3891.491100	19.248900
3893.261350	19.191000
3901.987183	18.711400
3907.413083	18.520000
3901.726550	18.881700
3893.375850	19.419000
3909.590400	18.482400
3906.083850	18.692700
3904.933233	18.792700
3910.807283	18.692200
3911.514900	18.634500
3909.207450	18.799800
3903.758633	19.144000
3907.135283	19.077700
3904.293817	19.312700
3911.486567	18.880400
3913.103650	18.787200
3906.536350	19.202400
3906.555300	19.221900
3913.332467	18.828500
3913.975917	18.810800
3912.863850	18.909000
3909.583933	19.130500
3908.189250	19.228200
3907.699833	19.261000
3905.819783	19.410100
3910.601317	19.136900
3912.027483	19.064200
3914.263967	18.946700
3918.475983	18.718000
3914.237250	18.977400
3918.363833	18.825700
3927.945317	18.860600
3925.586483	19.054900
3922.425300	19.243500
3932.076083	18.668200
3929.845817	18.795200
3919.525083	19.444000
3922.003483	19.307800
3925.918867	19.082900
3929.200367	19.227200
3932.621867	19.060100
3932.885467	19.053500
3934.333433	18.985900
3944.443600	18.563700
3938.971150	18.928800
3934.225500	19.241100
3938.177783	19.021300
3940.807067	18.912500
3943.309083	18.811300
3934.799200	19.360200
3941.642217	18.952400
3934.377567	19.430000
3936.998650	19.292400
3949.224850	18.562800
3943.554200	18.907200
3948.575800	18.593700
3948.896017	18.599600
3945.687400	18.827700
3944.540933	19.251100
3953.870700	18.773100
3957.235500	18.604800
3953.134817	18.868700
3947.047800	19.255500
3957.262400	18.648300
3949.865367	19.282700
3956.273633	18.943900
3951.390667	19.266500
3951.487100	19.277400
3955.467883	19.060000
3956.098133	19.057000
3968.669767	18.524300
3962.395200	18.928200
3960.571233	19.050400
3960.587417	19.071800
3953.574583	19.623400
3949.854183	19.908400
3957.272883	19.495000
3961.130917	19.278200
3964.985150	19.040400
3956.147833	19.583800
3958.234400	19.488600
3954.874733	19.717600
3958.411267	19.655600
3961.149100	19.711800
3967.024950	19.386000
3961.912483	19.714600
3966.542450	19.457100
3968.975650	19.357500
3967.494533	19.462300
3964.133017	19.692800
3971.214233	19.332100
3968.867583	19.756900
3972.533867	19.582400
3972.546633	19.587100
3975.898733	19.393600
3978.831267	19.348700
3976.220700	19.557900
3976.553617	19.550600
3990.248650	18.742500
3985.173300	19.080300
3977.460867	19.551800
3983.638333	19.269100
3985.819683	19.168300
3986.779067	19.111100
3991.431383	18.865300
3986.937233	19.159000
3989.252733	19.020700
3985.653433	19.237000
3987.841217	19.129400
3985.108983	19.392100
3984.519783	19.685200
3993.222950	19.203600
3992.042367	19.292000
3992.169467	19.297100
3988.170983	19.534000
3994.247033	19.184500
3991.478867	19.383500
3993.158433	19.341700
4003.378850	19.029900
3998.698783	19.315300
4003.142833	19.071700
3996.895983	19.473700
3991.772833	19.919500
3999.223517	19.529300
4002.115000	19.432500
3998.434317	19.658600
