#Y dist(nm)	Y force(pN)
3450.349867	20.080300
3462.728267	19.353700
3458.332250	19.692500
3470.743617	19.085800
3468.827033	19.215900
3470.162450	19.191800
3470.545767	19.184500
3463.112400	19.647500
3466.919300	19.451900
3472.280200	19.269800
3475.670017	19.097500
3467.413500	19.672100
3475.988517	19.188400
3477.586067	19.107400
3477.982833	19.098300
3473.116250	19.545800
3473.613233	19.524000
3468.809000	19.829000
3474.954650	19.497800
3480.910467	19.200100
3480.138050	19.277900
3481.067617	19.279600
3482.539300	19.192400
3478.248850	19.503200
3481.718350	19.322300
3486.634983	19.221900
3482.208717	19.492900
3490.022883	19.038300
3487.535717	19.210300
3479.182367	19.815400
3481.103783	19.811100
3483.785033	19.678200
3485.683500	19.631000
3490.755567	19.349500
3489.826217	19.406200
3496.626833	19.080300
3494.955567	19.246000
3493.054450	19.388900
3502.453600	18.963200
3496.952083	19.299900
3496.975100	19.313000
3496.685133	19.384500
3489.080700	19.858400
3495.786617	19.488700
3502.316133	19.084500
3500.499883	19.193100
3497.223117	19.491700
3497.084450	19.538000
3499.832133	19.419000
3489.319233	20.073600
3492.771000	19.867100
3493.496150	19.855100
3496.377217	19.860100
3500.361900	19.653800
3497.949317	19.807600
3508.884133	19.166100
3502.769000	19.704500
3501.977117	19.763800
3506.142750	19.574300
3501.472200	19.904300
3505.238183	19.751700
3509.319583	19.539900
3504.898483	19.812000
3506.439367	19.746400
3506.188767	19.802200
3506.750617	19.927600
3508.097667	19.855900
3504.849950	20.084900
3507.171667	19.971100
3511.886900	19.826300
3513.830233	19.732200
3513.050483	19.863600
3521.060867	19.422400
3517.717733	19.614000
3518.650617	19.556800
3517.395167	19.767400
3523.941550	19.403900
3513.782300	20.067500
3520.831767	19.661800
3509.950417	20.357500
3521.288767	19.691200
3513.294767	20.174800
3519.236567	19.848700
3524.048067	19.788400
3519.750367	20.071300
3524.634500	19.809800
3521.379933	20.073900
3524.472117	19.925500
3524.170617	19.964500
3526.705100	19.818800
3528.351300	19.754300
3529.518133	19.743600
3528.778767	19.904500
3525.982200	20.106800
3521.736000	20.382500
3529.864483	19.953600
3529.923783	20.067600
3533.104033	19.893300
3531.360750	20.093600
3533.743683	19.954200
3525.561917	20.440900
3530.246733	20.166000
3530.588033	20.274900
3531.827250	20.261600
3538.474333	19.830000
3531.538867	20.238400
3537.967217	19.880500
3537.304000	19.926500
3528.345850	20.465000
3539.930950	19.796900
3539.684217	19.573300
3531.950900	20.084300
3529.563417	20.220400
3535.122567	19.905700
3530.421200	20.150300
3532.210383	19.929300
3527.364117	20.211100
3529.901367	20.080900
3527.579267	20.216200
3521.697067	20.456200
3527.873917	20.085100
3523.129850	20.313500
3527.558167	20.070400
3522.695900	20.397500
3525.062000	20.263400
3528.643033	19.913100
3521.283350	20.321600
3520.962900	20.311100
3518.262950	20.468900
3525.927917	20.061100
3530.701917	19.744900
3530.654767	19.716400
3517.421267	20.497600
3532.164833	19.593300
3527.123500	19.890800
3533.132700	19.531400
3531.710217	19.615300
3528.388967	19.770400
3530.893100	19.499900
3530.153917	19.552300
3528.969200	19.614500
3530.171900	19.469900
3521.216933	19.893900
3520.864733	19.902600
3518.641333	20.002500
3516.643517	20.124700
3527.935333	19.455300
3526.813033	19.495500
3516.754933	20.006400
3521.539317	19.697200
3516.041683	19.994700
3519.148717	19.801000
3516.735200	19.967300
3522.644750	19.617500
3522.909383	19.445400
3518.628367	19.693000
3519.895917	19.617400
3514.227567	19.951000
3508.528200	20.201000
3513.938033	19.842600
3515.678833	19.667700
3519.302250	19.450100
3520.357967	19.403200
3521.108117	19.360300
3508.445450	20.022800
3512.957367	19.662100
3513.164567	19.643800
3516.207400	19.442600
3509.671650	19.766600
3509.978800	19.659200
3504.261967	19.997800
3508.351983	19.725000
3517.513067	19.172500
3517.015417	19.188100
3511.897983	19.487700
3511.583183	19.395000
3507.853117	19.573300
3509.812533	19.411500
3508.032400	19.506200
3507.404517	19.555000
3513.779467	19.178200
3502.301367	19.753900
3506.388233	19.473300
3493.971650	20.160800
3511.031067	19.161400
3504.331917	19.569400
3505.980283	19.459200
3507.801783	19.221900
3508.083950	19.143800
3501.542500	19.549100
3499.754033	19.678200
3506.424167	19.252000
3496.415350	19.694000
3496.000917	19.745800
3495.398433	19.813200
3499.300017	19.565500
3503.938183	19.215900
3498.333183	19.525200
3493.762600	19.760300
3499.730967	19.381000
3499.680633	19.363500
3489.019617	19.987300
3495.710267	19.583200
3500.941167	19.251400
3496.802033	19.305300
3492.455833	19.563600
3499.434850	19.137200
3491.095867	19.651300
3498.943883	19.077000
3497.111883	19.163400
3500.280350	18.912500
3488.366833	19.628700
3501.270200	18.841700
3491.634733	19.419300
3486.510783	19.618500
3489.556067	19.368400
3484.578917	19.583800
3482.599717	19.714300
3483.604983	19.681200
3486.239717	19.562200
3487.981417	19.402000
3488.788517	19.261000
3484.001817	19.542700
3485.574633	19.433700
3481.400217	19.666300
3476.199100	19.987700
3480.268283	19.751700
3479.613183	19.667700
3482.282267	19.484200
3485.063933	19.304700
3492.966483	18.822900
3485.220933	19.092900
3485.586167	19.058200
3475.314867	19.646800
3478.947733	19.437000
3475.132350	19.520900
3476.366800	19.404800
3471.589633	19.674300
3471.785683	19.648200
3467.586500	19.896200
3476.340517	19.356700
3475.559917	19.395700
3470.961000	19.686800
3474.340000	19.427300
3471.832417	19.454200
3478.458483	19.042800
3475.966683	19.201800
3477.960700	19.073000
3475.143500	19.085900
3471.669883	19.266900
3470.353583	19.284900
3469.987067	19.311100
3472.661100	19.174700
3473.426800	19.130300
3464.700150	19.531400
3470.113433	19.192500
3469.038367	19.187500
3459.923783	19.741200
3463.905633	19.540500
3459.478617	19.822600
3467.617333	19.190400
3464.901650	19.352000
3466.315217	19.237600
3472.137033	18.924300
3470.227167	18.960700
3473.388983	18.661800
3466.243517	19.056700
3469.284933	18.832200
3471.125300	18.722300
3459.759200	19.415300
3466.244983	19.018200
3470.220500	18.707600
3467.533033	18.825000
3461.839817	19.127500
3463.479067	19.039000
3460.649550	19.188500
3457.911717	19.339900
3457.337400	19.207100
3459.583700	19.081700
3460.476017	19.004800
3461.010583	18.940200
3463.361550	18.664400
3454.593150	19.152500
3451.697667	19.288000
3457.112083	18.945900
3463.566467	18.558700
3464.483950	18.509300
3452.805083	19.122300
3449.151633	19.344900
3457.104600	18.862100
3453.534800	19.083800
3452.097283	19.122300
3447.714150	19.358900
3453.796317	18.985900
3447.665583	19.354200
3445.210350	19.478900
3452.843283	19.023300
3451.717700	18.977600
3451.675417	18.877300
3451.137767	18.850300
3452.080650	18.741800
3448.200267	18.964900
3444.092933	19.213200
3447.518883	18.965700
3447.705267	18.827200
3451.847300	18.553700
3449.390783	18.700800
3448.799250	18.727400
3447.901150	18.673700
3442.886600	18.938300
3434.923867	19.330900
3433.893533	19.377300
3442.930117	18.834100
3437.432617	19.162300
3445.005700	18.643700
3439.056500	18.988700
3442.582783	18.765600
3439.622167	18.957400
3434.418200	19.185200
3434.270783	19.182300
3434.513817	19.140100
3431.858983	19.262700
3440.767750	18.719300
3440.561567	18.710800
3437.211533	18.906900
3444.153050	18.468800
3432.707933	19.038300
3437.002883	18.769800
3438.536867	18.645400
3437.903367	18.672700
3433.813167	18.854800
3432.826883	18.797100
3429.806117	18.946300
3420.726300	19.421600
3433.646650	18.635300
3425.555583	19.109700
3429.584950	18.824000
3426.826767	18.868000
3425.678967	18.939100
3424.900867	18.957700
3418.861350	19.294400
3429.203467	18.681700
3424.143667	18.994300
3426.853667	18.883600
3427.244500	18.835700
3432.778233	18.309300
3429.094233	18.539400
3430.045650	18.442400
3422.619833	18.862500
3417.153133	19.118100
3420.657300	18.908300
3428.743417	18.405400
3428.192317	18.426100
3427.028950	18.441500
3424.493733	18.464700
3419.394933	18.744600
3412.900267	19.070500
3418.580333	18.726600
3424.644000	18.364100
3419.439767	18.653200
3416.327817	18.772300
3417.350067	18.704800
3417.728917	18.690100
3422.106850	18.416600
3420.924067	18.411700
3416.373300	18.674900
3430.660900	17.774300
3427.496333	17.973600
3416.647000	18.566300
3426.273083	17.970600
3415.161550	18.528500
3410.212217	18.781900
3412.753633	18.571500
3407.124867	18.915100
3411.975367	18.635200
3411.743517	18.639100
3406.248283	18.836700
3408.052333	18.723600
3412.449217	18.485200
3412.565000	18.481700
3407.335900	18.731900
3404.191583	18.860700
3405.428967	18.793300
3405.717767	18.730900
3412.875500	18.287600
3401.280717	18.985900
3406.042900	18.705500
3410.338483	18.310800
3407.565117	18.438700
3404.001783	18.593100
3401.555267	18.739000
3399.369567	18.873400
3392.193550	19.292300
3396.076917	18.893200
3397.839250	18.810200
3403.361900	18.503300
3406.445300	18.285500
3402.052533	18.416400
3406.061167	18.116500
3396.022700	18.680600
3398.849933	18.478200
3405.713217	18.073300
3397.144500	18.601700
3399.035700	18.422600
3400.001950	18.250400
3401.544900	18.140600
3405.779367	17.822200
3404.578817	17.893600
3401.182083	18.066300
3397.507650	18.250100
3395.176900	18.272000
3390.121433	18.542700
3386.648733	18.715800
3387.183417	18.689200
3390.014117	18.537700
3388.469450	18.607400
3393.065800	18.182900
3390.465667	18.325900
3389.890100	18.386900
3396.751467	17.978800
3387.447633	18.401100
3382.253517	18.671200
3386.127017	18.407200
3381.992533	18.666600
3384.417583	18.507900
3384.972333	18.484500
3392.292700	17.942600
3386.222867	18.237400
3384.546267	18.325000
3384.797550	18.274400
3390.072883	17.942100
3386.028717	18.120100
3378.567650	18.519800
3380.431050	18.378200
3381.441533	18.310500
3385.228000	18.078500
3375.557767	18.659800
3379.455117	18.286300
3373.629050	18.566300
3372.009250	18.652100
3378.372783	18.258000
3364.406000	19.103600
3364.079500	19.157000
3372.487350	18.563000
3372.655600	18.534800
3371.690550	18.543200
3376.426733	18.259500
3372.732050	18.479300
3373.733033	18.401700
3367.373000	18.617000
3366.947133	18.652800
3365.799683	18.713100
3366.608367	18.661300
3356.575217	19.127500
3362.992567	18.707200
3375.525450	17.947400
3380.127733	17.651700
3372.705367	17.998300
3362.606400	18.530900
3365.785833	18.325800
3359.457300	18.678200
3358.399733	18.726600
3356.535850	18.816500
3354.923250	18.909500
3359.158333	18.666300
3354.029800	18.968900
3364.666283	18.158100
3363.415550	18.237800
3355.638883	18.717000
3350.740900	18.992600
3359.921900	18.332900
3357.440067	18.424000
3352.469417	18.641500
3351.935967	18.664600
3347.120267	18.990400
3354.889550	18.522200
3349.291467	18.763000
3352.431450	18.509600
3351.955400	18.539000
3345.161917	18.943900
3354.535300	18.397100
3350.690417	18.635800
3353.962567	18.409900
3345.160167	18.810400
3356.166017	18.133600
3353.933917	18.244600
3357.009817	18.063700
3356.023550	18.054200
3356.127033	18.023100
3355.851500	17.941100
3354.987583	17.999100
3352.276700	18.139100
3356.160633	17.886900
3352.744067	17.988700
3353.560950	17.907800
3345.970800	18.308000
3346.999800	18.212900
3355.080367	17.727700
3351.305600	17.948600
3352.157767	17.735500
3352.149417	17.710000
3346.407967	18.037600
3340.488417	18.366400
3342.662900	18.114200
3340.641083	18.146100
3339.319683	18.208800
3346.633333	17.751900
3329.817583	18.786600
3341.541567	18.052900
3335.891200	18.351200
3341.142700	17.951300
3338.301483	18.098700
3331.909550	18.429200
3337.004733	18.127200
3330.943067	18.506800
3342.963950	17.775800
3338.142817	17.896900
3340.682233	17.729700
3337.916900	17.834600
3330.109167	18.288700
3324.201517	18.641500
3335.326950	17.986700
3333.576483	17.913300
3333.410250	17.932400
3331.901533	17.998500
3331.995517	17.997400
3331.826033	17.876700
3327.365483	18.111900
3333.269567	17.737600
3332.707583	17.742000
3327.987667	18.046600
3327.533783	18.072600
3321.111050	18.283100
3320.210400	18.303500
3330.773383	17.669400
3329.833983	17.711400
3325.808933	17.853000
3327.141683	17.669400
3322.036933	17.933100
3321.330250	17.936900
3324.857483	17.703900
3319.553017	18.043300
3324.011200	17.774600
3312.112567	18.431200
3316.874567	18.130600
3323.389733	17.714700
3319.039083	17.993100
3322.385300	17.792900
3321.143967	17.871100
3323.674450	17.645300
3322.036933	17.728500
3318.105917	17.904100
3319.070733	17.842500
3321.343350	17.708600
3322.474917	17.617300
3306.971833	18.348600
3316.003567	17.803600
3321.204583	17.487300
3313.521500	17.949500
3317.704817	17.492800
3313.970550	17.721200
3312.691433	17.779500
3317.799033	17.475300
3311.492533	17.766600
3314.749117	17.466100
3305.081917	18.028900
3304.041300	18.086000
3307.124317	17.894200
3306.373983	17.930100
3302.637667	18.142900
3305.812967	17.807500
3308.193583	17.628900
3310.210267	17.465800
3301.688967	17.994100
3308.970167	17.543500
3302.065283	17.949300
3302.021067	17.809600
3295.449333	18.174000
3297.750883	18.003900
3296.940500	18.058400
3303.791233	17.658900
3299.461067	17.909500
3294.920917	18.192100
3300.346767	17.856100
3300.765167	17.654500
3299.146283	17.692500
3289.825733	18.227100
3301.182667	17.555800
3297.520167	17.758600
3297.396917	17.755600
3293.896767	17.900200
3299.851950	17.480600
3297.550850	17.593100
3293.519367	17.784100
3294.823367	17.673100
3292.165017	17.771500
3287.091617	18.059800
3296.118583	17.523300
3298.073767	17.370400
3291.354433	17.627400
3290.598433	17.658900
3282.808667	18.072100
3289.584900	17.664800
3292.658217	17.487700
3290.742117	17.572000
3288.460417	17.555800
3290.331967	17.430700
3292.294500	17.303000
3289.081650	17.494700
3287.286950	17.469500
3283.838567	17.628100
3285.765167	17.471500
3284.218117	17.533300
3286.163400	17.409800
3279.129233	17.832600
3279.803350	17.788100
3282.263617	17.626900
3282.391333	17.512800
3279.572467	17.583100
3278.873117	17.642200
3280.487850	17.518400
3278.497167	17.594800
3280.049400	17.408600
3277.438167	17.578000
3281.129267	17.342200
3277.411483	17.567100
3277.297100	17.437100
3281.971917	17.127700
3279.384433	17.234100
3274.365567	17.515000
3269.220017	17.847700
3272.431867	17.657200
3273.245867	17.437900
3274.607417	17.335300
3269.925383	17.623500
3283.904567	16.787200
3272.386750	17.336300
3280.230750	16.829000
3272.275200	17.309600
3274.957567	17.131000
3266.477650	17.632700
3272.434417	17.292100
3268.972250	17.457500
3272.386967	17.187100
3273.159600	17.123000
3271.787117	17.181100
3271.206267	17.214400
3266.417217	17.488300
3268.522317	17.355100
3271.065117	17.214100
3267.279133	17.347500
3264.230467	17.370400
3259.173233	17.664900
3260.843350	17.568500
3268.837083	17.079900
3266.630667	17.050000
3260.113250	17.408600
3251.243500	17.978000
3258.418833	17.527800
3267.247583	16.866900
3261.473617	17.159800
3258.328583	17.302200
3257.102183	17.387700
3262.859467	17.043700
3261.304333	17.150100
3260.345167	17.087200
3255.429450	17.308700
3252.225367	17.427100
3254.609750	17.282600
3255.820600	17.220800
3252.483600	17.418200
3250.783017	17.433400
3243.738350	17.787800
3249.394950	17.491100
3253.157883	17.217000
3252.619017	17.198200
3244.735633	17.577600
3251.614050	17.132900
3248.088583	17.301900
3248.241300	17.292500
3249.676417	17.212300
3252.449650	17.045900
3251.598800	17.003300
3251.606783	16.999800
3254.716117	16.766200
3248.157050	17.148500
3246.879567	17.240500
3240.123267	17.665600
3249.713117	17.085100
3250.719783	16.989900
3244.510433	17.333700
3244.516367	17.324800
3244.184867	17.210800
3234.643567	17.720500
3238.824917	17.370400
3232.889050	17.703800
3234.286767	17.623900
3228.376450	17.972300
3231.916367	17.674600
3233.787000	17.452400
3237.934583	17.162100
3226.858300	17.771300
3229.882983	17.577600
3239.497883	16.997700
3239.262350	17.002400
3242.315767	16.756300
3234.532633	17.234100
3228.445900	17.571800
3234.800633	17.215500
3238.046183	16.921200
3237.755017	16.900600
3228.424567	17.423500
3227.273050	17.474600
3232.848650	17.135000
3235.202183	16.983000
3227.449150	17.318000
3236.042483	16.802400
3231.124550	17.054000
3230.536183	17.080200
3229.827417	16.999300
3218.346983	17.646900
3216.977917	17.674600
3221.927817	17.373100
3224.549533	17.192100
3232.522983	16.724700
3226.922233	16.951800
3230.570467	16.655500
3232.156650	16.519700
3225.063950	16.883600
3219.262117	17.218300
3221.016733	17.107500
3222.610467	16.957300
3220.414033	16.965000
3221.347667	16.879600
3214.741633	17.235600
3216.975717	17.086300
3220.071533	16.877400
3218.839117	16.925500
3220.844000	16.661900
3219.982500	16.706900
3222.408200	16.560800
3214.981017	17.007100
3214.876417	16.894900
3208.283267	17.288500
3209.764033	17.141400
3209.668317	17.176900
3211.840167	17.058700
3215.845983	16.797000
3211.251067	16.942600
3211.222100	16.895900
3214.705833	16.615200
3211.492567	16.817200
3210.559150	16.878800
3210.803267	16.860400
3210.418783	16.824900
3210.106717	16.825600
3208.448000	16.950800
3211.719633	16.714800
3206.847400	16.967300
3204.128800	17.085200
3203.656983	17.083500
3204.170933	16.995000
3200.347083	17.214600
3192.714067	17.656900
3201.194133	17.142300
3196.858017	17.249500
3201.028900	16.986500
3201.253267	16.934500
3205.079867	16.666900
3195.603450	17.220800
3196.349950	17.174900
3196.500750	16.965800
3195.329317	17.017300
3199.047050	16.760300
3187.940450	17.422100
3207.696633	16.087200
3198.822433	16.587900
3192.919417	16.884400
3189.942617	17.051500
3199.614433	16.449900
3195.990267	16.684300
3197.151917	16.508500
3193.212483	16.683300
3194.651817	16.499800
3195.219050	16.490600
3192.734417	16.630900
3188.702350	16.876700
3186.510983	16.964100
3184.494800	16.964300
3190.554400	16.616600
3187.727117	16.783000
3186.392350	16.861700
3182.760650	16.941500
3187.322500	16.636100
3183.361100	16.844900
3180.327633	17.013000
3184.367183	16.757100
3181.862467	16.929100
3182.587650	16.711700
3181.280850	16.777700
3181.125783	16.795200
3176.835517	17.058400
3179.123150	16.818500
3177.349550	16.879100
3173.622867	17.034700
3179.972150	16.691300
3173.437667	17.049400
3175.155283	16.957800
3177.138633	16.739400
3179.179617	16.561000
3169.917233	17.100300
3180.574900	16.434500
3181.656483	16.352100
3170.144233	17.040300
3173.738917	16.784500
3171.172250	16.826300
3177.563067	16.429600
3167.662367	16.998400
3177.564633	16.423500
3168.378883	16.962000
3170.574733	16.812000
3167.993917	16.852600
3168.072900	16.846700
3170.220183	16.712700
3166.446567	16.929100
3167.142733	16.739100
3165.075317	16.834000
3169.606867	16.472800
3172.043350	16.330100
3153.150333	17.464800
3161.879583	16.944300
3164.625300	16.676300
3166.359067	16.488700
3161.292650	16.779500
3167.992333	16.397100
3165.300517	16.534900
3160.373183	16.845300
3160.308233	16.723500
3155.421833	16.979700
3161.609483	16.573200
3158.991317	16.768600
3156.830017	16.827400
3155.507350	16.823600
3154.594150	16.849400
3159.677367	16.517200
3163.027467	16.305700
3150.553400	17.063600
3156.831317	16.666900
3163.752017	16.120900
3159.430100	16.358900
3158.833967	16.393600
3157.686300	16.441700
3159.877267	16.295200
3159.478000	16.306400
3159.475833	16.320300
3159.793067	16.274200
3153.210167	16.680700
3155.833000	16.519100
3158.282250	16.144400
3157.869567	16.093600
3149.951517	16.498000
3145.709500	16.738400
3154.506650	16.179800
3154.565150	16.162100
3141.078633	16.882200
3143.361783	16.703400
3142.659500	16.709600
3143.916150	16.613900
3148.628483	16.328400
3142.907167	16.661200
3138.813883	16.883100
3130.118667	17.274700
3136.657450	16.889300
3142.070650	16.545200
3143.145583	16.465500
3149.537567	16.036300
3139.723700	16.607900
3146.105950	16.170800
3144.218683	16.266600
3147.158083	16.064400
3140.413017	16.467400
3136.810750	16.508900
3137.768217	16.436800
3147.192250	15.856700
3131.665467	16.780000
3133.609850	16.544300
3142.387417	15.971800
3136.074650	16.271600
3142.003517	15.904300
3129.410133	16.674600
3136.134183	16.269600
3136.100467	16.113100
3135.469850	16.093100
3133.977983	16.145700
3137.738200	15.907100
3133.524667	16.126600
3143.807650	15.495800
3128.048550	16.412600
3120.772183	16.791600
3123.013150	16.645100
3128.015750	16.351700
3126.972000	16.378700
3127.981533	16.281900
3132.406417	15.981700
3131.083267	15.984100
3124.426633	16.367100
3121.765300	16.536800
3122.259650	16.465100
3117.788983	16.614300
3117.365100	16.636100
3120.451850	16.454900
3122.792500	16.306400
3115.202100	16.596500
3116.715050	16.501700
3118.162417	16.355800
3117.068367	16.406800
3125.565617	15.817900
3125.026000	15.855200
3115.993567	16.380400
3117.123167	16.312300
3129.280017	15.433300
3114.797783	16.290000
3119.480417	16.016500
3113.494950	16.378100
3112.466033	16.397700
3119.023767	15.958000
3114.666450	16.199000
3108.754467	16.547500
3103.068433	16.868700
3109.051650	16.445300
3112.611800	16.224200
3111.734383	16.215900
3101.025983	16.847700
3100.859667	16.795600
3102.841883	16.668300
3102.115033	16.705200
3099.040233	16.883700
3112.291700	15.968300
3102.990500	16.505000
3105.973600	16.324400
3104.078133	16.437600
3103.221467	16.347700
3104.833433	16.206000
3106.121250	16.052900
3104.183550	16.169300
3099.431250	16.422800
3096.280083	16.605300
3097.187000	16.454300
3096.014233	16.456200
3098.773833	16.243500
3098.911817	16.204900
3096.662683	16.336800
3098.579383	16.226400
3096.811700	16.304300
3091.140100	16.534100
3088.590167	16.668400
3090.507700	16.487000
3093.124150	16.321400
3092.758000	16.343600
3095.290250	16.170800
3087.970283	16.461600
3095.554067	16.001500
3090.949250	16.251800
3095.740567	15.943000
3095.558517	15.806200
3096.468333	15.727500
3086.782050	16.292600
3081.659400	16.568600
3083.169350	16.465700
3078.410733	16.761300
3089.400100	16.069700
3092.040833	15.863400
3087.603117	16.090600
3078.559083	16.631400
3081.924667	16.444900
3084.837500	16.267700
3081.874250	16.355000
3076.648517	16.600300
3082.541500	16.244000
3085.551433	16.049400
3082.831050	16.201700
3083.504367	16.030300
3080.261050	16.181600
3077.425183	16.309800
3075.578017	16.429600
3078.822483	16.231800
3084.108383	15.898800
3083.186367	15.859300
3082.953483	15.852000
3079.545600	15.992000
3079.723850	15.955700
3075.885417	16.152400
3070.835117	16.449700
3083.054983	15.639600
3081.924017	15.690100
3080.042100	15.756500
3075.379817	16.039600
3068.847450	16.316900
3073.029950	16.025600
3075.745917	15.815800
3075.703683	15.791400
3079.642350	15.552200
3076.069783	15.770400
3075.080917	15.721300
3071.555583	15.857400
3073.791633	15.676800
3074.900467	15.581200
3076.720350	15.440300
3066.808150	16.027100
3074.112750	15.566900
3066.004333	15.904200
3060.125667	16.226200
3068.251117	15.764500
3069.295233	15.701100
3063.053200	16.015100
3066.333733	15.810000
3072.623350	15.366800
3063.393733	15.904500
3061.073217	16.033600
3066.864617	15.688300
3060.609667	15.864100
3058.120950	16.007300
3068.525600	15.366800
3057.037433	16.056600
3056.968400	15.957800
3056.773017	15.893800
3052.307183	16.130700
3054.077533	15.976500
3049.536400	16.250000
3050.867200	16.187900
3057.613150	15.732500
3049.495050	16.112300
3047.147000	16.221800
3054.858433	15.712200
3052.176250	15.857900
3051.707067	15.893800
3054.859217	15.709900
3054.315333	15.673500
3049.523733	15.937200
3047.227967	15.971800
3048.267800	15.917600
3042.873733	16.239300
3049.132483	15.856800
3046.228483	15.891300
3044.292983	15.968100
3050.783267	15.526300
3041.729833	16.063800
3038.001833	16.282500
3043.141750	15.971300
3043.035700	15.913400
3039.091233	16.019700
3050.271633	15.293400
3046.514783	15.547800
3046.500050	15.536300
3049.359283	15.296700
3035.733883	16.082100
3036.034167	16.034200
3033.542333	16.183200
3035.329450	16.062800
3040.787517	15.716200
3045.579833	15.237000
3040.806667	15.530200
3039.537133	15.609600
3033.387450	15.941000
3037.915883	15.519600
3040.667933	15.297900
3029.893833	15.891300
3034.031967	15.615100
3030.450883	15.812700
3027.671517	15.967600
3028.154383	15.837300
3028.348333	15.713700
3028.962283	15.618600
3031.588900	15.470300
3027.586250	15.674000
3036.293250	15.130100
3027.354517	15.646300
3027.389633	15.512100
3031.794500	15.260900
3020.030533	15.885000
3022.269967	15.725500
3010.028117	16.468300
3024.269383	15.611100
3023.620017	15.526600
3024.946733	15.395400
3026.570050	15.298700
3017.646017	15.831400
3029.013117	15.059500
3022.601250	15.432200
3024.305400	15.204200
3021.903083	15.330600
3013.205517	15.870400
3009.557200	16.080800
3016.990650	15.584000
3010.425317	15.877900
3010.011683	15.881700
3016.712683	15.434100
3012.120417	15.718900
3015.447767	15.503200
3015.638817	15.472600
3010.427433	15.648300
3008.721033	15.749700
3006.504217	15.874900
3012.540767	15.503200
3010.312783	15.559200
2996.948833	16.360200
3002.047733	15.954300
3011.668417	15.380800
3013.646683	15.281400
3023.296483	14.679000
3010.098617	15.328000
3010.430833	15.252300
3005.318267	15.513700
3007.298433	15.381600
3009.061483	15.282900
3013.369383	15.031200
3006.210583	15.332700
2999.512600	15.681500
3004.047850	15.408800
3009.841283	15.036900
2997.835967	15.763000
2999.620733	15.660600
3003.936067	15.309100
3003.504050	15.245000
3006.922300	15.032900
2999.880383	15.443100
3000.875367	15.376600
3001.981017	15.307600
3002.483933	15.252300
2997.572317	15.373000
2988.926333	15.885300
2996.446483	15.423600
2990.069633	15.811800
2998.244467	15.178000
2980.718167	16.231000
2998.405233	15.166200
2987.585983	15.796200
2995.416917	15.194800
2997.024417	15.081100
2994.379533	15.143100
2994.183150	15.147200
2991.115217	15.333400
2986.612050	15.605300
2989.682933	15.320700
2987.951883	15.338700
2996.481967	14.842300
2992.591367	15.058300
2982.788600	15.564500
2986.221233	15.274500
2988.940517	15.081400
2982.940617	15.393700
2989.098317	15.001300
2983.624333	15.272400
2987.373233	15.053400
2985.999717	15.102700
2986.392383	15.051300
2971.460933	15.820800
2978.305450	15.428900
2975.681933	15.584700
2986.209250	14.951300
2979.217800	15.204200
2987.385500	14.717900
2975.952283	15.410100
2979.758667	15.148000
2965.435667	15.971800
2969.414983	15.731400
2971.023350	15.604100
2975.145667	15.329200
2974.758667	15.331600
2973.793567	15.385600
2969.187183	15.639600
2974.384900	15.311300
2985.503117	14.639500
2972.980100	15.366800
2967.436233	15.543600
2969.263083	15.342900
2967.557417	15.414400
2963.164483	15.657300
2967.734883	15.361200
2974.797450	14.861900
2968.265633	15.229800
2975.165467	14.820700
2966.299517	15.322000
2963.124700	15.357500
2963.331950	15.296600
2969.646083	14.861400
2964.775633	15.159300
2965.119900	15.128900
2967.913633	14.962500
2957.034283	15.460200
2957.295583	15.434700
2956.380933	15.488100
2957.448733	15.415800
2955.096417	15.513700
2960.792533	15.160800
2961.492350	15.022400
2955.653550	15.353600
2941.719967	16.192600
2950.398183	15.652200
2953.047317	15.362800
2951.076450	15.433100
2941.858167	15.919300
2955.663000	15.084200
2950.348217	15.388600
2951.396883	15.314400
2948.364017	15.330100
2945.981650	15.489200
2944.386383	15.576600
2947.959350	15.366800
2944.790783	15.492000
2944.723950	15.404900
2941.242583	15.567000
2950.013500	15.011000
2947.437300	15.136100
2944.851367	15.261100
2939.214550	15.580400
2932.971600	15.887300
2948.300467	14.990200
2947.528183	14.960100
2953.367583	14.617500
2940.378500	15.377300
2943.418467	15.190900
2938.054650	15.413000
2935.611383	15.546300
2943.591900	15.071000
2946.003550	14.920400
2940.824950	15.106100
2937.849367	15.213700
2935.385333	15.261900
2940.574750	14.980700
2929.759167	15.604600
2931.761083	15.449400
2929.960100	15.505100
2940.379800	14.772200
2933.568433	15.109800
2936.030250	14.908400
2938.614933	14.738100
2933.496350	15.041600
2940.586350	14.595800
2919.698767	15.710800
2934.644400	14.825900
2927.540167	15.258400
2925.038367	15.396100
2927.259367	15.121900
2926.734267	15.136900
2934.843933	14.624400
2933.519850	14.707400
2924.286517	15.233500
2926.832533	15.087300
2917.486483	15.541500
2923.928650	15.138200
2918.154050	15.404600
2921.959883	15.165600
2923.891083	15.063900
2918.962733	15.360300
2930.564650	14.591900
2922.874750	15.034100
2908.219833	15.922800
2922.247400	15.095900
2918.373567	15.270700
2918.385983	15.183300
2924.621017	14.777800
2914.757333	15.332100
2922.678717	14.852800
2916.433850	15.212300
2917.120683	15.155400
2918.548217	14.927200
2909.301817	15.451600
2920.927467	14.753200
2918.891733	14.864100
2916.402000	14.874500
2909.676517	15.214000
2903.756633	15.505800
2917.545200	14.685800
2910.520967	15.097600
2912.011550	14.985500
2915.630550	14.641700
2913.876283	14.704200
2921.260700	14.178500
2919.970417	14.212900
2904.428233	15.109800
2909.524183	14.805300
2904.688150	14.982200
2911.118450	14.537000
2903.106917	14.987200
2906.152917	14.811400
2907.066267	14.759200
2903.999200	14.924600
2903.085917	14.894800
2903.586267	14.866600
2902.894833	14.900400
2899.362167	15.100300
2906.636500	14.609600
2897.546500	15.075200
2902.174733	14.788500
2892.976567	15.365200
2893.422717	15.331300
2895.658333	15.047400
2893.448783	15.187800
2897.391550	14.909000
2897.215150	14.911400
2893.936217	15.049300
2893.852817	15.046900
2893.936383	15.027000
2898.682683	14.741400
2898.115183	14.594100
2896.651800	14.694800
2887.579817	15.217900
2892.409267	14.944900
2894.127250	14.798300
2897.761417	14.554600
2883.765500	15.338900
2893.353267	14.764000
2889.573550	14.970800
2894.488817	14.655400
2898.895950	14.270600
2898.443700	14.221700
2888.698917	14.732200
2884.556700	14.984600
2894.254083	14.359800
2887.626083	14.745300
2888.939583	14.567400
2877.710117	15.139600
2883.563267	14.744200
2881.741317	14.855500
2888.306400	14.443700
2897.245583	13.759200
2884.369883	14.498100
2885.454667	14.419900
2893.398517	13.914700
2882.897533	14.391300
2875.755017	14.799700
2882.563517	14.329000
2889.128967	13.931800
2883.803917	14.182600
2883.815917	14.147200
2875.291500	14.677100
2877.705433	14.522700
2879.103217	14.278000
2879.059517	14.255500
2878.538667	14.286400
2882.130017	14.092300
2876.400283	14.345100
2866.380033	14.871300
2861.119750	15.185300
2864.729350	14.966900
2873.876133	14.383800
2875.704033	14.253600
2874.296933	14.242800
2873.805950	14.194100
2876.331100	14.027900
2864.632417	14.658400
2871.014300	14.272400
2866.104400	14.568500
2867.192717	14.527600
2866.234667	14.439100
2861.439433	14.695500
2864.539500	14.493500
2861.285867	14.696200
2862.279083	14.509500
2862.189850	14.485100
2859.175650	14.623400
2860.214200	14.570300
2858.592683	14.680500
2863.779983	14.376300
2856.907133	14.646300
2853.898567	14.786200
2855.197933	14.632500
2858.493417	14.428000
2858.706083	14.425500
2858.948617	14.403700
2848.403400	14.993900
2849.108117	14.896600
2846.123650	15.097400
2854.027667	14.626000
2852.811350	14.683400
2851.916617	14.672500
2856.792417	14.369500
2852.910150	14.565200
2856.813833	14.313900
2862.406700	13.928900
2863.730083	13.813500
2855.919350	14.171000
2858.249700	13.973900
2853.554967	14.173600
2849.838017	14.393500
2845.659433	14.613300
2852.203267	14.213800
2845.148500	14.442200
2846.448750	14.360600
2838.214800	14.785700
2853.786133	13.854900
2850.593300	13.907900
2844.807733	14.219700
2845.628967	14.116900
2840.145533	14.424000
2838.692267	14.538100
2844.469600	14.192000
2844.607817	14.164900
2843.674733	14.208600
2846.329233	13.932900
2841.111133	14.137500
2835.872800	14.439200
2836.133350	14.404400
2838.912583	14.224200
2833.033983	14.522400
2839.186033	14.148300
2839.584333	14.102400
2831.933217	14.542900
2838.435150	14.019800
2835.880183	14.138700
2830.327133	14.423700
2825.030267	14.736700
2833.724133	14.214000
2827.354767	14.560900
2834.152033	14.013600
2835.116000	13.917800
2833.174333	13.935000
2821.982733	14.640900
2820.770100	14.717300
2824.870000	14.465900
2835.929733	13.730400
2827.089833	14.242200
2828.249333	14.155200
2826.600517	14.243800
2829.767500	13.976000
2822.966250	14.270600
2822.524917	14.252800
2820.848750	14.305400
2822.539733	14.201700
2823.924900	14.106800
2819.371183	14.317200
2820.919167	14.088700
2823.618683	13.922700
2825.253017	13.800700
2823.835883	13.836000
2815.138833	14.178600
2816.732400	14.078300
2817.714900	13.959200
2811.686850	14.293100
2813.386833	14.151300
2817.457700	13.926500
2807.439950	14.528300
2813.231800	14.166800
2798.691217	14.893000
2808.455417	14.286400
2807.891783	14.298300
2811.712033	14.064300
2808.530500	14.118500
2812.527983	13.853400
2813.895333	13.768200
2803.311183	14.383200
2810.160867	13.911400
2814.093583	13.569600
2808.887850	13.856300
2807.087817	13.915900
2797.199700	14.516300
2804.665750	14.027900
2794.643017	14.647600
2802.692000	14.153300
2804.220617	14.068300
2795.078567	14.452900
2805.992150	13.813700
2803.487400	13.946000
2810.258450	13.537100
2805.918417	13.726900
2802.664150	13.902800
2800.632017	13.961200
2805.227867	13.680700
2797.730350	14.110100
2798.866983	14.034000
2794.838217	14.202400
2799.421350	13.877900
2804.103650	13.531100
2799.876633	13.789800
2801.034533	13.719900
2789.856133	14.381400
2798.940167	13.791100
2794.884733	13.923000
2791.091417	14.134300
2785.586167	14.457400
2791.668067	14.077300
2791.317533	13.948800
2789.436600	14.017100
2775.474367	14.805100
2777.993850	14.654300
2785.885367	14.167000
2790.093883	13.907400
2786.162950	13.998500
2777.672700	14.471300
2785.056517	13.969000
2787.413017	13.818700
2779.145217	14.305300
2787.690500	13.796000
2785.723700	13.833200
2784.723283	13.785600
2778.333667	14.142100
2777.182083	14.183100
2779.085717	14.056300
2782.996600	13.811000
2777.354467	14.068000
2770.452117	14.382100
2779.204267	13.865500
2773.566567	14.223400
2779.244550	13.869200
2770.755033	14.251800
2777.965517	13.801900
2772.919117	14.052100
2777.399433	13.764900
2769.253717	14.254900
2776.900517	13.797100
2775.357417	13.848700
2776.925817	13.710100
2776.102383	13.686300
2770.727150	13.976000
2771.744300	13.895900
2767.431183	14.158500
2771.436633	13.740900
2770.268367	13.784800
2776.978483	13.363200
2780.213500	13.163900
2774.783850	13.368500
2763.611850	13.994000
2766.936817	13.766800
2766.108517	13.774300
2764.372950	13.860800
2757.154350	14.287100
2759.046083	14.080800
2764.598350	13.651100
2758.384833	14.015100
2754.306517	14.212300
2755.721517	14.142100
2759.888600	13.867400
2763.769833	13.639500
2755.559600	14.103800
2758.846983	13.912200
2763.089117	13.668400
2758.670550	13.947500
2753.464983	14.217000
2756.687350	13.987400
2757.324233	13.903500
2760.564300	13.716200
2758.517400	13.812200
2754.117667	14.069800
2760.183217	13.587700
2757.517667	13.695700
2760.725933	13.457700
2756.475817	13.675000
2755.792050	13.707800
2752.872750	13.888400
2753.773017	13.775200
2750.009883	13.893000
2746.381317	14.105200
2753.128600	13.677200
2764.284600	12.987500
2752.981250	13.489100
2745.978900	13.877300
2749.201967	13.624600
2754.911867	13.258300
2738.449983	14.227800
2754.223317	13.264000
2744.341017	13.713100
2746.244733	13.556400
2735.461017	14.148700
2739.401583	13.906800
2747.082183	13.441200
2744.046350	13.633700
2736.683767	13.930900
2738.575667	13.782100
2737.847117	13.756600
2744.544017	13.345900
2741.549333	13.510800
2738.683300	13.658300
2738.832717	13.575400
2741.521783	13.335300
2742.910900	13.231100
2735.478167	13.677400
2745.457883	12.989100
2745.243183	12.885300
2746.834950	12.748400
2738.314233	13.208700
2736.890717	13.273300
2729.900200	13.689200
2733.380033	13.462500
2730.985200	13.499600
2726.237233	13.756200
2735.257750	13.161800
2728.958000	13.529000
2727.327283	13.635300
2728.864883	13.553400
2721.238050	13.835300
2726.300567	13.507300
2724.854333	13.617600
2735.461350	12.967100
2729.069483	13.213200
2723.769733	13.482600
2727.133200	13.237400
2717.693517	13.809700
2724.027883	13.408200
2721.899617	13.539100
2720.243083	13.588800
2714.081317	13.940200
2706.179483	14.391300
2711.910917	14.056300
2713.860567	13.913200
2715.672700	13.673900
2712.497833	13.839300
2708.880133	13.996800
2712.906583	13.740900
2710.699233	13.885500
2723.170817	13.119400
2713.379667	13.568500
2704.493267	14.080300
2709.095967	13.733500
2709.061200	13.731200
2709.061383	13.721100
2704.381133	14.003100
2704.689600	13.844300
2704.558583	13.843200
2706.029033	13.761900
2707.338217	13.701700
2707.151017	13.603600
2707.408017	13.522900
2709.815067	13.289800
2709.203017	13.309600
2702.451567	13.711300
2699.855400	13.852100
2705.904217	13.321300
2704.565317	13.407100
2705.159400	13.366700
2707.668833	13.200300
2696.567100	13.774100
2693.688850	13.826000
2692.794800	13.850600
2699.570100	13.412600
2699.212700	13.414100
2694.608017	13.664500
2703.826950	13.119200
2702.928050	13.160900
2703.004783	13.113900
2698.443317	13.258300
2699.884667	13.152700
2695.508117	13.408300
2699.200233	13.134900
2694.210383	13.293000
2692.249117	13.416400
2692.733933	13.356300
2688.953183	13.560300
2693.510383	13.111500
2687.011583	13.465500
2688.576150	13.302200
2678.331983	13.904100
2689.673817	13.209400
2684.057350	13.541600
2689.887333	13.164600
2690.643067	13.105300
2690.696950	13.049600
2687.712750	13.191200
2672.086067	14.113300
2687.322017	13.214500
2683.939350	13.366700
2688.385217	13.060600
2689.138100	12.992300
2683.368517	13.281100
2679.383883	13.528500
2678.342467	13.586200
2676.884250	13.666400
2682.634450	13.195400
2679.164983	13.382700
2676.209150	13.563500
2678.924433	13.390500
2678.389267	13.429300
2685.613833	12.993900
2682.757500	12.935300
2676.463667	13.304500
2683.526617	12.844600
2673.239933	13.438200
2669.706800	13.538300
2674.366717	13.200100
2677.500667	12.936700
2674.502267	13.109200
2664.560167	13.689700
2669.474267	13.376200
2667.932633	13.302900
2665.183283	13.479900
2661.202133	13.698900
2670.880167	13.123300
2673.369950	12.844700
2667.148367	13.156900
2661.774200	13.461500
2662.019067	13.387300
2658.296483	13.599900
2660.558833	13.479300
2674.605617	12.635200
2663.610550	13.151000
2656.260300	13.559300
2656.716950	13.470800
2658.131483	13.393800
2657.981050	13.381100
2662.427500	13.106600
2659.933633	13.182600
2654.270350	13.501100
2656.192517	13.340200
2662.112150	12.999800
2659.072050	13.141700
2651.679700	13.601000
2647.680800	13.622000
2661.096467	12.841000
2658.588233	12.975900
2652.577333	13.333200
2656.794150	12.901700
2656.347017	12.937000
2663.245533	12.492600
2649.689683	13.286100
2648.563183	13.221600
2653.485467	12.901000
2654.547567	12.802000
2656.470800	12.644000
2649.563400	13.021100
2646.246550	13.172300
2645.735183	13.212000
2644.505417	13.290400
2651.656767	12.845500
2647.143117	13.018600
2642.116250	13.314500
2644.061083	13.180200
2640.448583	13.384200
2642.104583	13.128600
2634.987200	13.509200
2640.921700	13.091600
2645.413317	12.822100
2648.344250	12.635900
2644.775667	12.861700
2639.823650	12.999200
2643.738950	12.721700
2643.259883	12.663900
2635.238083	13.165200
2644.205783	12.626700
2642.388850	12.728600
2631.711400	13.205900
2632.817933	13.111500
2625.692850	13.531100
2632.312700	13.156100
2641.785267	12.500800
2636.251417	12.738400
2634.819650	12.800300
2632.353000	12.924200
2628.032050	13.181600
2628.137850	13.180100
2623.140217	13.480300
2624.211467	13.299700
2619.893050	13.544600
2632.020883	12.827100
2631.852217	12.808600
2623.447367	13.290400
2630.861983	12.837900
2631.539417	12.639400
2622.006267	13.168600
2628.675367	12.727300
2620.111417	13.247200
2621.051683	13.050000
2625.868967	12.723400
2624.871383	12.705000
2614.897283	13.288500
2609.172450	13.662200
2611.120700	13.541000
2606.477733	13.724700
2615.148083	13.107600
2610.615383	13.372200
2608.596067	13.464100
2614.631667	13.087000
2625.207817	12.432700
2612.666100	13.163900
2614.993467	12.952000
2619.545783	12.659100
2620.299733	12.614400
2617.830817	12.740800
2607.466333	13.214400
2603.043217	13.444900
2608.457000	13.064300
2612.170333	12.837300
2613.213283	12.766500
2608.415267	13.033600
2620.117733	12.194700
2615.003967	12.474100
2603.184883	13.128300
2619.165600	12.148400
2602.584133	13.090500
2610.208300	12.610100
2607.157400	12.680300
2605.093200	12.707900
2600.175283	12.906900
2599.835583	12.955500
2607.314400	12.481400
2602.567033	12.746400
2603.610533	12.513600
2601.544717	12.645700
2607.077700	12.302300
2602.329250	12.578000
2604.136050	12.443600
2598.944000	12.636800
2598.162317	12.633100
2595.679633	12.733200
2591.028700	12.999800
2589.005917	13.124800
2598.788333	12.543300
2596.561467	12.621100
2591.371683	12.918900
2582.140617	13.312300
2589.864733	12.853800
2591.836983	12.726600
2592.310733	12.671700
2589.648850	12.779300
2584.092500	13.098200
2582.709383	13.147200
2585.080917	13.015000
2590.750517	12.631600
2589.156633	12.685500
2588.131217	12.711100
2590.529800	12.512900
2591.409400	12.434900
2582.337183	12.989100
2589.736167	12.490300
2584.868750	12.638600
2584.699417	12.626200
2578.585333	12.999900
2586.347167	12.517600
2575.652783	13.013100
2573.707517	13.118500
2574.288217	12.982600
2573.350283	12.993300
2591.220550	11.918000
2585.087117	12.301300
2576.666917	12.654100
2571.736067	12.905200
2581.652400	12.261800
2575.431517	12.635500
2571.058367	12.889900
2575.295183	12.624900
2574.329583	12.602700
2573.258733	12.654000
2571.225483	12.775800
2578.086183	12.342000
2566.439683	12.914400
2570.314267	12.627100
2574.204467	12.353800
2567.889600	12.697100
2562.757083	12.983400
2563.198250	12.955400
2567.324083	12.634200
2567.199250	12.521600
2561.432667	12.857500
2558.511517	13.027600
2557.657033	13.080000
2569.380033	12.349200
2568.585133	12.389100
2573.744800	12.080300
2570.272733	12.289500
2561.679933	12.666000
2567.789967	12.244300
2553.513633	13.100400
2564.435950	12.426800
2567.179350	12.219800
2558.571683	12.693900
2557.514833	12.754800
2560.096783	12.583500
2558.776867	12.541000
2549.085450	13.085000
2554.838083	12.743700
2559.623467	12.444700
2579.835200	11.197100
2558.698300	12.443300
2548.834217	13.031800
2549.045867	13.000000
2556.572150	12.379100
2552.214883	12.469500
2547.125500	12.751100
2548.987717	12.632200
2547.913550	12.608600
2543.968983	12.726300
2551.353600	12.272300
2547.093467	12.512800
2546.826683	12.509100
2538.760183	12.977400
2537.124633	13.062300
2546.908950	12.413000
2551.877083	12.086700
2546.855400	12.364400
2542.749000	12.575600
2541.607800	12.616100
2540.915550	12.620600
2546.195733	12.285900
2548.851600	12.115700
2538.083450	12.477200
2542.519967	12.111400
2535.410783	12.524700
2541.725650	12.154700
2531.328833	12.716400
2536.700583	12.412200
2542.532850	12.058700
2529.627350	12.820100
2526.559533	12.781500
2530.947833	12.400800
2533.452317	12.226000
2534.044417	12.197500
2531.194933	12.358800
2530.825183	12.363000
2529.875067	12.423100
2533.725183	12.189000
2533.672567	12.075400
2525.177217	12.377200
2534.310783	11.803200
2536.083217	11.675200
2536.083733	11.668800
2538.082800	11.522300
2531.238900	11.905100
2516.630767	12.679300
2517.359000	12.619100
2526.789633	12.021600
2529.133317	11.892400
2525.721133	11.912100
2519.240467	12.285400
2512.691483	12.622800
2510.388733	12.734700
2517.505133	12.288000
2527.211433	11.686800
2518.668450	12.168800
2521.613450	11.989700
2524.900900	11.632400
2511.268417	12.430900
2513.034100	12.303800
2514.251417	12.231400
2515.745750	12.082700
2513.429083	12.185100
2514.479083	12.063900
2509.050533	12.358500
2510.847150	12.241700
2509.838983	12.302400
2510.451700	12.219800
2511.314650	12.048500
2506.572250	12.323000
2504.084817	12.446800
2503.440700	12.491900
2513.670767	11.857000
2514.275850	11.809100
2503.101850	12.264800
2507.489017	11.987800
2507.106883	12.013500
2504.320967	12.160600
2513.333833	11.496900
2505.368683	11.895900
2505.064950	11.826500
2496.610167	12.356200
2503.758183	11.964600
2502.454233	12.013500
2504.724567	11.781400
2499.014233	12.042600
2506.317967	11.579200
2490.896567	12.484600
2492.495067	12.398200
2486.924933	12.747000
2493.653550	12.354500
2496.225683	12.168000
2501.885050	11.748500
2489.199783	12.361500
2493.930700	12.058700
2491.996150	12.119600
2496.149183	11.846400
2480.790067	12.712900
2479.452650	12.791900
2483.252350	12.565400
2488.717783	12.203400
2481.754067	12.472600
2483.197400	12.371600
2482.237433	12.423300
2483.261833	12.360600
2485.256933	12.103200
2485.371883	12.053400
2484.838417	12.035500
2484.813167	12.044500
2474.122817	12.679300
2478.362350	12.424100
2480.958950	12.259700
2483.580133	12.077700
2479.641817	12.295900
2480.338650	12.241400
2494.831133	11.335200
2484.422033	11.947800
2484.534933	11.883300
2478.626283	12.126000
2472.481917	12.453400
2484.791050	11.674400
2475.212317	12.233200
2473.857283	12.309000
2468.181350	12.620000
2474.459917	12.105400
2467.984350	12.491900
2475.296000	12.061400
2470.995517	12.317500
2472.723967	12.126700
2473.684567	12.047200
2477.996550	11.669900
2472.159750	12.006500
2459.052433	12.772800
2460.170800	12.731900
2470.649050	11.989100
2460.591283	12.534000
2463.878083	12.288000
2477.205000	11.489300
2467.384000	12.049400
2467.318433	12.027300
2462.755950	12.128900
2463.567050	12.079100
2471.217600	11.579900
2465.163083	11.919600
2464.152683	11.871900
2464.064800	11.802200
2460.781683	11.956800
2463.699683	11.714400
2460.330600	11.897600
2459.331800	11.968100
2462.202017	11.758300
2457.163517	11.921200
2466.445283	11.346900
2459.862800	11.684000
2462.390450	11.504600
2462.803267	11.466400
2460.634983	11.588700
2455.188983	11.759400
2450.461350	12.028400
2445.610050	12.312200
2452.566200	11.903600
2448.916317	12.019300
2452.859517	11.747800
2447.891750	11.915600
2445.302217	12.076300
2445.020967	12.100300
2448.006383	11.934000
2445.910167	11.961400
2447.792017	11.758300
2439.702850	12.232400
2447.965067	11.692900
2448.605850	11.646800
2436.774883	12.352500
2436.603583	12.342600
2445.020650	11.714000
2446.248033	11.624700
2436.521433	12.192900
2436.555717	12.205900
2440.576500	11.958800
2435.923433	12.236400
2439.028917	11.878300
2433.962633	12.171900
2433.015100	12.253400
2436.897617	11.991700
2441.623150	11.560100
2438.644517	11.690800
2433.527383	11.945400
2436.271667	11.755900
2428.341350	12.224300
2442.827417	11.365300
2431.596683	11.901300
2430.801683	11.865900
2425.463033	12.146400
2428.933783	11.945100
2429.515333	11.855100
2437.172017	11.361400
2433.624433	11.417400
2424.002283	11.983200
2426.055900	11.854700
2426.692067	11.801500
2429.496050	11.602700
2427.086850	11.600300
2428.365267	11.496700
2414.248567	12.296500
2418.595133	12.036300
2420.153750	11.947100
2416.092050	12.196400
2425.400617	11.563900
2422.567083	11.715600
2427.738783	11.404500
2420.765400	11.814200
2417.767133	11.854500
2429.701917	11.126800
2414.407283	11.863200
2417.576667	11.654800
2411.186767	12.019000
2408.279650	12.194300
2412.130783	11.863200
2411.423517	11.849800
2392.467883	12.940200
2414.151300	11.634200
2413.473800	11.674400
2413.475467	11.695300
2412.042950	11.744300
2413.175683	11.639400
2412.090267	11.684800
2409.213033	11.874300
2417.178550	11.366300
2401.381200	12.252500
2411.338950	11.642900
2405.583650	11.897600
2415.768850	11.271800
2414.672933	11.332200
2410.383133	11.569500
2408.127850	11.522900
2410.444850	11.350700
2406.613583	11.512800
2407.019000	11.484800
2402.080983	11.736000
2405.421417	11.534200
2412.684867	10.947100
2400.900100	11.597900
2399.827883	11.556900
2407.400950	11.090600
2406.007667	11.161000
2403.024400	11.353100
2412.684017	10.690900
2406.453383	11.003700
2397.099233	11.548500
2391.151400	11.897900
2401.232517	11.216800
2396.767367	11.391100
2389.324633	11.809200
2384.811600	12.052700
2389.743467	11.744800
2392.702183	11.550000
2396.879250	11.281700
2394.096800	11.296100
2392.562383	11.323800
2396.665667	11.017000
2393.943267	11.190100
2391.229350	11.339300
2397.387167	10.957300
2386.436200	11.430500
2388.881300	11.278700
2392.297467	11.069200
2390.761317	11.131900
2390.008500	11.088200
2381.941083	11.563500
2392.279267	10.955800
2388.652083	11.164500
2390.582883	10.948500
2380.306050	11.547200
2387.484550	11.066900
2386.805850	11.067500
2378.955983	11.498700
2377.830133	11.551200
2375.782133	11.675100
2380.512833	11.396100
2373.705283	11.730000
2379.618450	11.271500
2386.315383	10.845600
2378.033717	11.326600
2375.800067	11.414200
2375.650933	11.255400
2373.369133	11.366400
2363.284050	11.909000
2363.899183	11.864700
2372.471267	11.320000
2371.000217	11.421100
2374.225150	11.093000
2373.842867	11.042800
2372.020917	11.116600
2368.444967	11.315800
2374.295183	10.947900
2370.012333	11.212800
2367.121550	11.363900
2360.501517	11.747800
2358.403150	11.674400
2368.174317	11.075800
2372.589600	10.800800
2362.593367	11.398300
2360.050050	11.498900
2366.169017	11.043100
2364.527883	11.136900
2360.699333	11.350500
2360.764467	11.311000
2364.771833	10.936200
2359.652450	11.225000
2358.571283	11.251500
2359.277333	11.209500
2361.765233	11.062200
2352.457233	11.612400
2350.823600	11.570600
2352.851750	11.434400
2343.556083	11.996100
2347.898983	11.712600
2348.550083	11.589600
2354.855133	11.160300
2359.805150	10.806800
2359.919400	10.777100
2344.370417	11.701600
2354.265950	11.105600
2351.438083	11.260500
2355.039533	11.031300
2352.955050	10.952600
2352.103150	10.954700
2354.751533	10.804500
2352.438917	10.924600
2345.649550	11.239400
2344.537167	11.216500
2345.399767	11.154400
2346.766467	11.052400
2351.244883	10.756500
2340.242567	11.351800
2338.203983	11.465400
2345.049067	10.976800
2346.599550	10.886300
2337.250583	11.432400
2339.609883	11.254800
2336.168483	11.315400
2333.222867	11.490400
2340.939750	11.019800
2339.693417	11.065900
2337.490483	11.191200
2336.377067	11.260900
2335.944667	11.067400
2340.892250	10.732700
2338.762783	10.844100
2329.666733	11.390400
2329.803433	11.241000
2329.324517	11.225800
2337.321700	10.721900
2330.766400	11.123000
2325.154233	11.475000
2326.325350	11.378900
2328.818767	11.127100
2329.665300	10.996400
2326.224467	11.139400
2324.924033	11.202300
2321.835367	11.374300
2325.721533	11.160900
2327.709683	10.978500
2326.941650	10.925600
2323.609300	11.140700
2319.785383	11.374200
2323.881000	11.111600
2326.451083	10.860000
2321.245400	11.141300
2324.190367	10.947100
2321.400850	11.122100
2319.311717	11.239900
2332.275583	10.461300
2326.396233	10.625400
2321.326117	10.934800
2319.550550	11.040500
2320.257117	10.987900
2325.744133	10.541400
2318.820683	10.872900
2318.460367	10.803700
2313.792550	11.064200
2315.645000	10.963700
2312.516067	11.139400
2316.926333	10.826400
2310.530367	11.177800
2312.579500	11.003000
2305.028617	11.454100
2308.583467	11.234500
2306.811367	11.341300
2306.348483	11.310000
2304.966767	11.239000
2303.727750	11.290700
2311.066950	10.781900
2302.945850	11.274200
2308.687550	10.928600
2306.167017	11.056300
2305.593100	10.978100
2304.973583	10.988100
2303.673583	11.005500
2304.397633	10.953000
2306.263183	10.827000
2302.909250	11.015900
2298.488083	11.246400
2304.056533	10.920300
2304.192400	10.821200
2303.021867	10.846300
2302.202717	10.835200
2300.758100	10.897400
2301.330133	10.869300
2297.241667	11.076400
2304.970933	10.524300
2291.615750	11.205800
2295.895133	10.913100
2298.534600	10.732700
2296.004367	10.863400
2295.805867	10.858000
2293.186750	10.998200
2299.833600	10.545800
2292.379950	10.945700
2293.885833	10.761000
2293.745533	10.755000
2293.599850	10.735100
2298.028050	10.405100
2288.110750	10.851500
2281.910533	11.183100
2289.571000	10.655900
2290.553067	10.588600
2291.678150	10.513100
2295.702917	10.256500
2286.394483	10.686300
2291.997333	10.308600
2283.336367	10.783600
2287.512683	10.514400
2286.696067	10.520500
2289.789867	10.346200
2282.868700	10.719800
2287.963267	10.429900
2288.252467	10.345600
2283.073500	10.587800
2284.567683	10.422600
2282.513900	10.504400
2280.629900	10.571300
2277.413450	10.723700
2269.379417	11.200300
2276.218983	10.782000
2282.733733	10.378800
2279.544083	10.398900
2274.765667	10.657600
2270.843867	10.867600
2267.991033	11.046300
2268.293183	11.036100
2280.040783	10.322100
2268.954133	10.810200
2271.965600	10.618400
2273.365700	10.535600
2279.247700	10.165400
2258.826800	11.300900
2270.194600	10.582700
2258.145167	11.220700
2266.872250	10.689500
2269.182450	10.544900
2269.109683	10.555200
2271.385433	10.216200
2267.673833	10.431000
2262.665850	10.719800
2261.386333	10.816800
2260.003267	10.770700
2249.700117	11.356600
2263.191700	10.542200
2255.266200	10.995800
2252.422083	11.163300
2254.028600	11.062400
2258.213567	10.772200
2253.406633	10.969800
2259.803250	10.571300
2261.174633	10.414200
2256.791983	10.647000
2256.636200	10.649000
2255.007667	10.733500
2254.048483	10.754100
2253.691467	10.766500
2256.155200	10.596200
2252.971567	10.785700
2257.014850	10.437200
2260.687350	10.168700
2259.846017	10.159600
2249.966833	10.746600
2253.212500	10.526600
2248.519233	10.765500
2249.494817	10.499500
2251.218867	10.426000
2244.783283	10.785300
2247.266967	10.634500
2243.515167	10.702300
2246.272167	10.520500
2243.538583	10.638300
2241.089100	10.742600
2240.130533	10.783500
2240.450150	10.727600
2247.062867	10.315900
2243.417783	10.548600
2247.850100	10.261100
2240.206467	10.567300
2233.307233	10.976400
2234.030133	10.940100
2239.797100	10.563200
2236.232750	10.716500
2235.766850	10.732700
2238.804517	10.468900
2246.681467	9.988300
2241.795033	10.227900
2240.743750	10.295300
2231.803217	10.668400
2233.613067	10.530100
2235.131783	10.378800
2230.877400	10.635800
2231.024233	10.615500
2225.760283	10.931700
2229.635333	10.549800
2229.642400	10.537700
2218.718883	11.181300
2229.479600	10.550600
2227.441150	10.547300
2223.464667	10.713400
2228.422333	10.370100
2223.875733	10.643100
2227.157383	10.401600
2217.868217	10.931500
2217.361833	10.978200
2219.731133	10.692600
2227.916917	10.171900
2225.714683	10.206600
2225.177800	10.239200
2219.998333	10.552500
2218.897117	10.616500
2221.385050	10.379900
2213.209917	10.869400
2221.925633	10.311600
2218.731383	10.482000
2224.611700	9.971300
2220.375950	10.179200
2218.191350	10.221500
2213.684500	10.483700
2213.034683	10.485300
2218.086283	10.184100
2215.598317	10.184800
2212.388117	10.368400
2213.984683	10.275000
2210.880400	10.440500
2204.300183	10.700400
2203.954183	10.671000
2205.802133	10.492500
2204.141817	10.587700
2212.827683	10.076400
2205.202600	10.496900
2207.379467	10.327900
2214.437133	9.866400
2209.098950	10.133000
2201.901683	10.522800
2205.927550	10.282400
2206.973333	10.190700
2201.812667	10.445500
2203.993383	10.193700
2203.102500	10.227500
2194.207850	10.730300
2200.398233	10.334100
2199.673983	10.259400
2204.768883	9.922500
2205.434617	9.804100
2201.497183	10.018800
2199.723650	10.090400
2197.443567	10.248400
2199.586200	10.067900
2191.560950	10.519100
2193.321400	10.342100
2194.326983	10.254300
2190.049483	10.533600
2193.960317	10.273000
2196.630667	10.053700
2188.995850	10.461500
2205.189783	9.356100
2195.897400	9.941000
2193.430750	10.051400
2190.119600	10.207100
2185.943850	10.386200
2181.328650	10.540700
2186.538717	10.229200
2182.803633	10.452000
2185.871617	10.242100
2185.769467	10.110400
2184.825867	10.168600
2188.979550	9.875300
2188.028000	9.921800
2175.440250	10.532300
2176.136283	10.465800
2178.741533	10.261500
2174.571167	10.490800
2178.662967	10.205800
2175.180050	10.370300
2169.383067	10.687600
2175.292933	10.344600
2152.306583	11.648100
2170.339183	10.561800
2177.223183	10.125300
2177.674450	10.112000
2180.236167	9.940900
2167.014983	10.584600
2171.466167	10.296700
2170.701450	10.322600
2164.718367	10.680400
2170.216767	10.359400
2176.344600	9.952400
2175.917483	9.844800
2173.633100	9.967700
2177.655300	9.691700
2166.243500	10.367300
2169.971167	10.132300
2175.760317	9.775000
2162.603450	10.340600
2167.864300	10.014800
2166.732900	10.075400
2166.724533	10.071600
2164.370017	10.047700
2159.424650	10.297400
2159.002167	10.235500
2156.603867	10.382800
2161.145550	10.105400
2169.193567	9.610900
2160.975000	9.947000
2159.237700	10.052300
2159.056250	10.037900
2163.042717	9.838000
2154.915850	10.233500
2153.311783	10.218900
2145.881533	10.619400
2148.169650	10.447700
2153.607033	10.114200
2153.981767	10.031500
2149.317300	10.281200
2145.450350	10.515200
2156.465300	9.869300
2147.465283	10.314900
2153.946283	9.933000
2150.912733	10.089300
2146.250117	10.357000
2150.301783	10.065000
2151.795033	9.935400
2146.027667	10.186300
2155.882133	9.601500
2143.404283	10.304100
2151.430417	9.802600
2143.763817	10.157500
2139.816700	10.340600
2139.655383	10.279200
2145.913583	9.909600
2145.552333	9.907800
2147.970650	9.737000
2127.803767	10.824700
2137.293483	10.218900
2140.580167	10.015000
2138.798117	10.124500
2135.677250	10.283000
2137.005633	10.034400
2136.189917	10.072900
2128.556683	10.510800
2130.762483	10.383300
2133.295283	10.208100
2132.593300	10.229600
2125.288683	10.614900
2132.609067	10.177300
2140.505833	9.670800
2131.492950	10.191500
2140.525883	9.612000
2135.813283	9.848400
2128.729467	10.178800
2129.871150	10.088900
2136.930717	9.672100
2128.029150	10.190000
2124.609467	10.276300
2122.657583	10.320000
2122.871733	10.226700
2129.053867	9.866800
2132.239483	9.647700
2127.529533	9.923700
2116.796333	10.399800
2123.162200	10.009700
2122.751583	9.996000
2122.359133	10.032300
2129.715033	9.560100
2122.262833	9.856500
2120.922083	9.904800
2115.582083	10.169400
2115.029917	10.213600
2119.463483	9.940500
2115.037983	10.179900
2113.863350	10.097900
2118.240783	9.789000
2109.158983	10.273500
2117.029550	9.785300
2111.738150	10.090400
2111.536550	10.083800
2110.461950	10.024400
2108.011717	10.121800
2118.974683	9.436500
2106.976033	10.165800
2112.518150	9.755600
2117.690883	9.374100
2104.955567	10.020400
2109.385383	9.762300
2104.831583	10.046700
2112.825317	9.527200
2096.611333	10.389300
2102.635883	10.055400
2105.694067	9.863800
2104.753017	9.926500
2100.290817	10.150300
2097.229683	10.222200
2090.503750	10.581200
2104.656467	9.707200
2106.419300	9.593000
2095.433417	10.174300
2098.172967	10.008400
2105.834117	9.523900
2103.746017	9.657700
2106.810533	9.315600
2098.969433	9.770700
2099.120833	9.750000
2097.070433	9.853500
2100.633617	9.512800
2094.352567	9.834700
2090.710217	9.990700
2092.582483	9.876000
2091.030283	9.954000
2090.600000	9.983000
2086.985250	10.086200
2086.129233	10.055400
2093.025033	9.617400
2094.769567	9.462100
2097.853300	9.251900
2095.627983	9.366600
2085.813683	9.868500
2077.654500	10.280600
2079.578933	10.139100
2083.656883	9.906000
2090.143150	9.412700
2081.431850	9.858200
2088.215083	9.435600
2075.849000	10.103000
2077.114967	10.036600
2071.840150	10.343900
2077.368350	9.999800
2075.167617	10.075300
2076.726183	9.968700
2071.377150	10.161200
2076.520617	9.819700
2068.051933	10.334100
2076.834150	9.819500
2076.685750	9.756200
2075.679350	9.782000
2067.388233	10.247700
2072.231067	9.989200
2074.675717	9.779200
2066.568867	10.236100
2070.927233	9.943500
2071.484317	9.907600
2077.134733	9.547500
2074.766667	9.653500
2065.041867	10.164700
2068.792033	9.855000
2070.270350	9.729200
2068.515217	9.787600
2063.536183	10.065000
2064.459800	9.877100
2067.531717	9.673600
2071.601750	9.358400
2071.414217	9.351700
2065.241683	9.643500
2068.394100	9.424700
2072.504583	9.143400
2069.094267	9.344800
2062.599217	9.561400
2072.236933	8.982600
2055.544383	9.925500
2055.897317	9.919900
2054.456500	9.916100
2053.502267	9.957100
2065.334917	9.167200
2060.453083	9.496500
2055.294183	9.749400
2052.547333	9.929700
2052.214767	9.862600
2059.777117	9.322000
2052.215617	9.728500
2056.639767	9.437200
2054.463217	9.550900
2058.640017	9.287200
2052.514933	9.620100
2049.335967	9.665500
2046.246967	9.825100
2053.418650	9.392300
2049.653667	9.624400
2051.587350	9.404600
2046.788533	9.625800
2056.248917	8.992900
2054.101267	9.114100
2048.635750	9.428900
2053.728000	9.079100
2057.659133	8.745600
2045.236467	9.480700
2042.661533	9.624300
2044.372000	9.491000
2042.733833	9.476700
2045.562350	9.248300
2044.443800	9.275600
2047.213033	9.073500
2041.342300	9.387500
2050.076800	8.877500
2044.741933	9.133200
2044.921650	8.987600
2034.321100	9.606200
2036.021767	9.477100
2040.959283	9.169500
2037.322817	9.355300
2037.992133	9.325800
2043.370283	8.854500
2034.406183	9.360600
2027.301917	9.718000
2030.247033	9.523200
2040.106683	8.940000
2034.252500	9.278600
2042.459117	8.614300
2035.878883	8.991900
2041.109883	8.673600
2041.393333	8.643600
2030.396533	9.121800
2035.620833	8.787600
2023.730617	9.488200
2024.777500	9.429500
2023.288033	9.371100
2027.582233	9.087000
2012.923950	9.885800
2013.199717	9.880600
2032.580817	8.721400
2021.426800	9.386900
2018.043817	9.531400
2026.307867	8.935300
2020.922817	9.211600
2018.261267	9.325300
2022.372800	9.072800
2012.894550	9.641900
2012.646367	9.627100
2019.453700	9.164600
2011.084200	9.645800
2016.318200	9.306200
2017.423350	9.209900
2014.189167	9.371800
2014.708383	9.348600
2011.279317	9.410200
2014.740100	9.169700
2013.881733	9.171900
2011.636233	9.308100
2008.532750	9.480200
2008.173733	9.498300
2008.864317	9.269500
2004.772267	9.533800
2004.306717	9.534400
1997.350300	9.914000
2001.941383	9.509700
2000.148067	9.563500
2009.849850	8.973200
2000.339283	9.529200
2004.237183	9.282600
2000.066033	9.537000
2003.116333	9.290700
1998.856333	9.419700
1995.711300	9.571100
2001.014383	9.207600
2000.421050	9.224900
2001.936250	9.107600
2001.106933	9.142200
1999.407083	9.059700
1995.506283	9.290700
1997.105533	9.158100
2002.433333	8.822700
1990.416533	9.433200
1994.838533	9.132300
1987.039117	9.576400
1992.724500	9.235100
1992.628083	9.273000
1992.113117	9.301900
1988.073567	9.340300
1984.672350	9.514700
1990.525733	9.142800
1988.759200	9.245300
1989.990567	9.086800
1987.442383	9.207900
1987.353083	9.216000
1992.353600	8.888000
1988.475600	9.090800
1988.390583	9.048600
1994.402617	8.677000
1993.887267	8.675500
1985.979783	9.113100
1986.648450	8.911700
1979.467800	9.354800
1982.317633	9.192600
1982.986167	9.139300
1976.566667	9.360400
1972.193400	9.611900
1981.574783	8.999400
1980.919533	9.017100
1977.569267	9.209200
1975.032350	9.380300
1979.474833	9.009900
1980.212083	8.919000
1981.134250	8.808800
1967.456483	9.611100
1968.246483	9.548400
1970.528483	9.413100
1970.767150	9.387500
1977.458467	8.995000
1969.840900	9.370100
1969.180567	9.372700
1981.148067	8.624800
1981.258483	8.574600
1972.995733	9.036900
1967.561317	9.321100
1969.659367	9.202000
1967.255433	9.339000
1967.081550	9.307400
1972.244550	8.871800
1969.112817	9.036100
1977.431933	8.522100
1968.861450	8.998700
1964.727717	9.098800
1961.702617	9.237700
1972.828117	8.509900
1961.340817	9.179800
1956.962617	9.443500
1959.501583	9.282600
1968.232400	8.698700
1970.505350	8.524700
1961.979533	8.976300
1968.581583	8.551800
1962.805050	8.875100
1966.517050	8.638400
1958.038667	8.947000
1963.649367	8.600800
1956.664050	8.998700
1969.990317	8.176600
1964.360550	8.383100
1963.223283	8.332200
1958.303350	8.588900
1948.526567	9.097600
1946.690267	9.177700
1951.023250	8.895500
1957.890167	8.469700
1955.332167	8.491300
1956.203783	8.411100
1958.661333	8.201100
1958.843600	8.182100
1950.634850	8.650100
1946.051883	8.888100
1940.755117	9.134200
1933.893050	9.539300
1944.093067	8.878000
1943.747650	8.874200
1945.440100	8.759300
1950.050733	8.489100
1950.348417	8.317600
1942.583933	8.766000
1943.408333	8.687100
1939.836700	8.910200
1947.187717	8.404600
1940.700500	8.669900
1938.654783	8.794200
1945.031550	8.400200
1940.799867	8.607100
1933.732367	8.868700
1934.432550	8.831600
1934.478750	8.777300
1931.288000	8.935100
1936.126183	8.623500
1929.320633	9.022800
1935.207400	8.639900
1935.797783	8.592900
1940.218567	8.178700
1938.441233	8.247600
1934.274883	8.416500
1929.040767	8.719900
1931.246250	8.596100
1923.603700	9.063200
1918.701717	9.160300
1920.703300	9.047300
1931.405850	8.432900
1928.357517	8.599600
1925.373650	8.651000
1923.453733	8.739600
1913.814183	9.214500
1920.732050	8.804300
1919.567767	8.905000
1927.300800	8.410700
1919.553817	8.794900
1916.139467	8.907100
1919.114233	8.711400
1918.623100	8.681900
1912.216167	9.049000
1918.078217	8.710600
1925.671483	8.202900
1918.813417	8.477500
1911.704417	8.887000
1917.848767	8.499700
1915.971050	8.600000
1911.229283	8.750700
1916.148767	8.404300
1911.293300	8.635400
1908.520367	8.816200
1911.248067	8.657800
1909.638617	8.732800
1916.321083	8.197800
1903.404783	8.943000
1908.272283	8.574600
1904.287400	8.804300
1901.759600	8.948900
1904.857833	8.759700
1905.509400	8.656400
1901.655533	8.784900
1894.539167	9.209200
1894.164633	9.249900
1899.010833	8.982900
1898.936483	8.932500
1894.214600	9.188900
1895.316067	9.081700
1895.240067	9.073600
1893.885600	9.135800
1897.221983	8.926800
1896.042267	8.861800
1893.143933	8.997000
1892.348167	8.975800
1890.789250	9.047000
1897.486817	8.623600
1901.003017	8.415700
1896.431100	8.479400
1897.349350	8.428100
1899.415550	8.293100
1895.439583	8.494800
1894.660367	8.418100
1887.078867	8.792500
1888.867433	8.653200
1892.214300	8.453300
1892.526517	8.400100
1887.112733	8.719500
1887.308717	8.688700
1894.298000	8.212700
1885.168017	8.722300
1889.102633	8.477700
1892.083583	8.244900
1892.461250	8.094500
1890.113817	8.205700
1877.103233	8.907900
1885.891633	8.377200
1890.825433	8.059500
1886.385150	8.295200
1876.909500	8.730500
1879.300433	8.558100
1892.995767	7.679200
1879.304067	8.484100
1885.851933	8.064300
1886.850333	7.998000
1883.477017	8.071000
1882.885900	8.018900
1867.840350	8.821100
1875.416967	8.367700
1869.978267	8.661100
1869.104550	8.703800
1871.857750	8.506400
1869.474583	8.532300
1868.116600	8.597000
1872.873200	8.307800
1869.600500	8.434400
1873.243767	8.123800
1866.566017	8.486200
1871.835067	8.124400
1864.769983	8.536200
1859.289733	8.868600
1866.504100	8.437700
1860.191967	8.665000
1862.090767	8.535400
1859.443233	8.684700
1860.612800	8.621000
1859.327133	8.642700
1858.462000	8.667200
1858.080883	8.672100
1853.072650	8.951900
1860.887417	8.427700
1851.348300	8.976500
1850.820833	9.011400
1855.363000	8.733500
1855.414550	8.506400
1854.064633	8.619300
1850.980317	8.788900
1849.576367	8.880700
1853.328600	8.591000
1852.288800	8.551400
1848.800800	8.761100
1841.021867	9.182200
1852.332633	8.502600
1852.138350	8.505500
1854.990200	8.321900
1844.304750	8.838800
1850.414450	8.417600
1857.158933	7.944900
1851.754383	8.245500
1847.816567	8.469100
1846.811900	8.513900
1836.520000	9.146300
1839.950083	8.928300
1842.738250	8.525600
1837.271150	8.851100
1848.201250	8.155400
1843.937483	8.405700
1853.008383	7.790400
1841.185133	8.493300
1842.314117	8.438200
1843.841683	8.304600
1844.683117	8.105500
1840.787200	8.269700
1837.194200	8.448200
1838.581050	8.334800
1838.725317	8.299900
1835.389383	8.493300
1829.933717	8.798500
1832.496700	8.535200
1833.994867	8.418700
1829.166700	8.706500
1839.762933	8.057100
1832.816533	8.412000
1829.075683	8.612100
1828.528467	8.611300
1835.903833	8.144100
1831.329983	8.366100
1834.592500	8.152700
1828.278483	8.387100
1833.642217	7.993000
1833.044217	7.939900
1829.043567	8.180500
1828.483683	8.195700
1831.932533	7.990500
1825.636083	8.271600
1812.634850	8.953100
1818.135683	8.653200
1815.879467	8.780500
1819.059800	8.597600
1821.278450	8.352500
1818.515617	8.520100
1813.795417	8.776600
1814.517233	8.726700
1824.112700	8.132600
1822.645717	8.207800
1821.208000	8.185400
1823.003233	8.033400
1826.241133	7.692000
1820.031917	8.059300
1818.239633	8.152200
1821.982017	7.911700
1818.847933	7.924200
1819.737900	7.860800
1816.157433	8.064300
1814.100450	8.191700
1816.615333	7.888200
1809.536483	8.253300
1815.281900	7.879100
1805.091217	8.459200
1806.655150	8.343800
1814.557133	7.891800
1812.696717	7.914400
1808.223800	8.086100
1806.684933	8.107800
1808.203150	8.022500
1802.293450	8.372300
1817.623783	7.434300
1806.554333	8.041800
1808.190900	7.814000
1801.566517	8.197300
1809.825800	7.702400
1812.364333	7.543200
1797.107950	8.366300
1809.244567	7.612600
1792.418717	8.550400
1798.914733	8.152500
1804.424417	7.808200
1810.232067	7.459600
1796.354733	8.143200
1791.508183	8.392500
1790.311333	8.401500
1791.071050	8.362100
1794.699683	8.145600
1792.871533	8.246100
1786.061400	8.521100
1792.479450	8.096000
1798.169133	7.740600
1791.641583	8.099700
1793.470800	7.835000
1790.037417	8.012200
1793.612333	7.773000
1784.151717	8.325100
1785.083250	8.269100
1786.136500	8.180000
1783.116667	8.296600
1780.513350	8.449700
1789.042817	7.925200
1794.843933	7.551000
1792.076250	7.665200
1782.534633	8.094600
1773.752467	8.603200
1789.075583	7.628100
1783.948717	7.911100
1787.131733	7.692000
1779.955150	8.113400
1781.637233	7.864800
1779.697883	7.952700
1773.846633	8.255700
1775.737617	8.154100
1766.850550	8.678300
1781.920467	7.771300
1766.058433	8.582400
1775.706467	7.980700
1768.719033	8.401500
1770.788867	8.275600
1775.645883	7.833300
1766.092833	8.356200
1767.254333	8.238900
1762.454617	8.513800
1760.667817	8.590300
1768.553517	8.137900
1772.406983	7.794600
1763.623717	8.261200
1770.725783	7.795500
1767.100383	7.964400
1771.451717	7.682200
1770.354933	7.719600
1764.773117	7.974400
1755.637017	8.406100
1758.048883	8.239800
1757.025950	8.258600
1757.634200	8.219900
1754.954367	8.396200
1768.263833	7.599000
1763.276383	7.894500
1755.250133	8.379000
1758.631917	7.964800
1762.789383	7.709100
1765.886367	7.450000
1765.896783	7.422900
1758.997333	7.755300
1751.187417	8.236600
1750.591183	8.247600
1759.032867	7.752400
1751.339250	8.099000
1751.541233	8.013300
1752.923033	7.873500
1757.477517	7.578700
1753.638800	7.781900
1758.446900	7.477100
1742.557717	8.376100
1741.716183	8.303100
1745.524183	8.065800
1750.092333	7.793100
1745.834917	8.018200
1740.002083	8.225100
1745.696100	7.859000
1746.782450	7.749500
1748.208150	7.647800
1749.541200	7.551800
1746.149167	7.759000
1748.022933	7.500000
1741.550800	7.862300
1744.577317	7.599700
1741.958083	7.760100
1733.011367	8.311300
1731.449667	8.406400
1738.032467	7.907800
1735.353967	8.036800
1742.423167	7.534300
1744.491800	7.387700
1731.613817	8.126500
1745.235450	7.290800
1722.069350	8.464400
1726.328217	8.243500
1729.836567	8.061100
1731.793483	7.937700
1724.988650	8.297300
1727.362900	8.074400
1724.052317	8.292100
1732.083983	7.795200
1730.309283	7.895100
1734.703133	7.579800
1721.188500	8.347100
1717.550167	8.459800
1731.533650	7.613300
1717.124617	8.441500
1722.696833	8.089200
1717.808167	8.386000
1726.056500	7.881200
1725.848167	7.849000
1724.905000	7.867100
1726.204333	7.763100
1729.198400	7.570700
1726.503583	7.659900
1722.647883	7.858800
1722.058517	7.787800
1723.001983	7.741200
1720.354183	7.896600
1721.590233	7.807500
1719.278800	7.898000
1722.140717	7.614700
1719.951667	7.732900
1711.987017	8.169400
1721.457800	7.526300
1721.373500	7.421300
1712.661433	7.916100
1714.795333	7.706700
1725.283700	7.050200
1715.456067	7.617100
1714.384883	7.660200
1708.716000	7.885700
1706.640217	7.966600
1708.801800	7.818200
1706.759917	7.924900
1705.303700	7.987100
1702.828933	8.148300
1696.612700	8.397500
1698.949517	8.209900
1692.762350	8.504600
1699.522650	8.114300
1702.660383	7.914300
1711.030867	7.386400
1702.079100	7.735400
1700.416650	7.835600
1700.362600	7.814000
1698.630517	7.911100
1698.875667	7.799500
1696.257817	7.874500
1695.705150	7.881500
1693.026667	8.017900
1701.713283	7.491600
1699.247717	7.628500
1703.933367	7.320100
1695.759850	7.741700
1698.049983	7.584300
1695.746117	7.677700
1693.476233	7.791600
1693.398433	7.783200
1696.668267	7.547800
1699.485500	7.245800
1693.111367	7.617100
1686.936467	7.985800
1692.609383	7.597500
1692.659067	7.477600
1695.187250	7.269200
1689.053483	7.588500
1688.484833	7.588500
1677.502517	8.223100
1676.398300	8.294600
1686.442850	7.651400
1687.907117	7.523200
1693.477733	7.111200
1690.198333	7.344600
1682.045467	7.795300
1684.779783	7.623300
1682.472200	7.710500
1674.586383	8.038800
1677.580400	7.851500
1687.263183	7.267800
1681.686917	7.574500
1681.867900	7.438400
1682.960583	7.318800
1664.704400	8.314400
1677.115133	7.589700
1667.108433	8.178000
1668.778167	8.061400
1681.277217	7.178500
1678.079117	7.338100
1666.334017	7.966900
1674.031817	7.500700
1673.216167	7.523800
1667.873467	7.850800
1673.898433	7.407600
1673.737450	7.327100
1662.950633	7.963500
1669.112517	7.582600
1665.170517	7.814800
1667.019417	7.702600
1670.282283	7.452600
1667.963850	7.509800
1661.386367	7.914700
1667.172083	7.573500
1671.021600	7.259600
1665.290600	7.477100
1674.813650	6.893900
1661.342633	7.617600
1661.642650	7.583900
1661.667050	7.580600
1656.441383	7.893600
1664.665400	7.237100
1661.745783	7.390200
1654.866617	7.759300
1659.054133	7.495800
1648.275433	7.998300
1650.273250	7.839200
1652.065633	7.710600
1650.482250	7.812500
1651.865733	7.723800
1658.250900	7.312400
1652.485617	7.593700
1658.304250	7.209500
1643.480283	8.013300
1648.786900	7.725500
1652.164633	7.517700
1651.082000	7.564700
1649.121283	7.623000
1643.537900	7.842200
1648.239067	7.540600
1653.078250	7.190600
1652.783283	7.194300
1641.536683	7.832400
1648.264250	7.387400
1642.857567	7.576000
1640.079233	7.722600
1638.059383	7.836900
1633.891200	8.081900
1640.940583	7.553700
1651.061167	6.910300
1654.061967	6.666700
1648.693667	6.995800
1633.915317	7.635700
1637.978317	7.396600
1634.636317	7.548700
1634.451617	7.572100
1635.596300	7.488800
1633.238833	7.612500
1638.099433	7.303500
1641.290883	7.092300
1627.849200	7.822400
1632.043367	7.462600
1628.972233	7.641300
1633.864117	7.334800
1627.872150	7.679600
1631.610583	7.305000
1634.632950	7.083500
1627.743483	7.456500
1630.939317	7.267900
1619.259233	7.949400
1635.081567	6.983200
1628.093900	7.334600
1628.249533	7.306500
1629.365833	7.203300
1625.724533	7.403400
1624.859900	7.453700
1628.110550	7.268600
1631.099417	6.921100
1628.385600	7.037000
1620.667717	7.462600
1624.861450	7.208900
1623.894950	7.150700
1620.354900	7.292600
1618.085217	7.363000
1612.341633	7.715700
1616.795200	7.452500
1618.682983	7.335000
1623.173533	7.010100
1614.012583	7.439700
1617.830367	7.193800
1611.612600	7.543400
1613.473283	7.425000
1618.546583	6.968400
1611.831517	7.345900
1608.788633	7.479600
1606.054167	7.634800
1609.634917	7.372300
1607.163250	7.502600
1611.281017	7.254400
1611.732017	7.222600
1601.239367	7.688200
1615.443617	6.816700
1611.227967	7.057000
1612.451767	6.992800
1611.877283	6.903300
1607.307000	7.137800
1603.009017	7.308400
1600.915733	7.425300
1603.865433	7.248300
1608.365317	6.974800
1611.692633	6.572700
1591.560950	7.788500
1588.099133	8.013300
1593.379117	7.701700
1590.883817	7.793800
1603.408633	6.972900
1603.026733	6.953100
1597.753033	7.227300
1601.942683	6.952500
1595.684783	7.308600
1592.628550	7.468700
1589.571750	7.619300
1589.064500	7.625900
1595.446033	7.181100
1599.609617	6.905200
1600.433367	6.853900
1597.136617	7.018300
1586.383400	7.601900
1591.749050	7.250900
1600.183750	6.722000
1586.338250	7.503500
1593.001617	6.985300
1592.530100	6.972200
1580.422583	7.680300
1593.752717	6.842800
1585.400450	7.216100
1581.876700	7.431500
1589.582967	6.894700
1582.864783	7.236600
1576.952367	7.522900
1579.850917	7.335400
1575.074933	7.633500
1575.934300	7.552400
1590.581850	6.618200
1589.282250	6.678500
1570.965133	7.730100
1576.982333	7.369500
1578.094500	7.232600
1577.753783	7.228500
1575.976317	7.300000
1578.569183	7.094700
1581.430950	6.899900
1589.950767	6.348700
1575.928400	7.185500
1575.433550	7.067300
1570.017567	7.367500
1562.307333	7.776300
1569.421783	7.351800
1580.320383	6.687300
1569.615083	7.302300
1572.358583	7.026000
1572.857533	6.953100
1572.880517	6.924700
1571.911850	6.942500
1572.506767	6.789100
1574.877767	6.607000
1566.571667	7.006300
1570.187933	6.766200
1569.406233	6.786000
1570.634717	6.710800
1571.609733	6.507600
1571.950383	6.417600
1566.721867	6.691600
1567.583433	6.600300
1563.337350	6.816800
1563.702017	6.805300
1565.817583	6.675000
1567.177733	6.530100
1557.154283	7.082400
1558.802767	6.971800
1562.389133	6.726900
1561.524933	6.599700
1554.299850	6.967100
1546.945583	7.344900
1546.510300	7.382300
1555.965933	6.795300
1564.478550	6.263000
1556.428167	6.558700
1553.113150	6.750500
1557.087917	6.479500
1554.886000	6.588500
1543.949983	7.117800
1548.812300	6.791300
1547.090133	6.889200
1556.162850	6.331700
1545.813400	6.926600
1544.175567	7.041700
1543.682433	7.012200
1545.292983	6.892200
1537.276717	7.331500
1543.946167	6.941200
1550.186950	6.544700
1539.680800	7.161800
1543.422867	6.825700
1539.747383	6.969900
1542.979883	6.745800
1540.271233	6.849600
1537.927800	6.965000
1537.198167	6.999100
1538.512317	6.846700
1538.814450	6.720800
1540.722950	6.597200
1532.361500	7.104500
1540.063650	6.638300
1533.943633	6.827400
1533.905350	6.813500
1536.150783	6.642300
1530.490733	6.981000
1534.617117	6.717100
1527.808150	7.118900
1527.628883	6.998400
1527.414017	6.984700
1529.342633	6.786000
1528.648117	6.828700
1537.803800	6.268700
1533.554033	6.481200
1524.201800	6.859400
1519.207217	7.133800
1517.093000	7.216100
1518.789100	7.161200
1521.331750	6.911900
1518.970483	6.980400
1518.021967	6.974800
1521.341867	6.780400
1520.143817	6.843700
1518.200200	6.932900
1520.386433	6.796500
1517.694900	6.826700
1522.306850	6.526400
1528.236133	6.113700
1518.699400	6.669800
1517.013133	6.765000
1516.964200	6.751700
1522.699850	6.332900
1529.502183	5.933700
1517.600750	6.627500
1511.069233	7.005600
1520.777517	6.307000
1514.753850	6.636500
1515.590933	6.531300
1508.781400	6.930800
1500.801083	7.401900
1506.216367	7.092100
1507.948267	6.812200
1505.030167	6.985900
1509.092500	6.721700
1508.840267	6.733000
1500.628983	7.153200
1506.555217	6.725500
1498.869983	7.144800
1508.326033	6.563100
1507.029933	6.600000
1502.176533	6.857400
1500.456867	6.928000
1501.187650	6.857600
1503.289000	6.699500
1504.660917	6.579700
1496.984717	7.045300
1504.667000	6.584900
1508.899517	6.297400
1511.029250	5.999300
1504.491100	6.342200
1499.982183	6.608700
1505.387433	6.279000
1500.546867	6.409000
1500.970233	6.341400
1501.418733	6.219600
1508.300833	5.802300
1495.266667	6.529000
1496.485850	6.458900
1502.453667	6.067000
1495.487383	6.441900
1495.494233	6.382200
1490.375183	6.671700
1497.625617	6.195100
1489.764833	6.684600
1491.256883	6.472800
1484.602867	6.783400
1484.239883	6.805500
1484.990550	6.738500
1479.730967	7.055500
1483.258267	6.858100
1487.401967	6.600100
1488.920900	6.428300
1491.364800	6.251000
1492.773933	6.124200
1483.577350	6.671600
1480.453100	6.770600
1479.752233	6.784500
1486.575350	6.311300
1478.620350	6.782000
1474.591317	6.981100
1479.644150	6.677600
1471.226450	7.019300
1475.375300	6.728600
1472.033233	6.849000
1475.632400	6.628100
1471.851333	6.844800
1479.584400	6.365000
1483.447383	5.994000
1475.654017	6.386800
1475.598533	6.348300
1468.840033	6.710400
1466.702717	6.828700
1462.058517	7.108600
1467.795233	6.667500
1468.841367	6.529000
1474.448633	6.171300
1468.089750	6.544700
1466.660067	6.589000
1470.768567	6.254500
1470.764767	6.228400
1454.221867	7.140100
1459.950917	6.782500
1468.513800	6.262700
1467.021100	6.341900
1450.154500	7.180700
1456.031583	6.820500
1460.198467	6.556600
1468.055850	6.088100
1467.085083	6.057300
1458.040233	6.591600
1466.437517	6.020200
1466.746300	5.984900
1456.553650	6.572300
1453.043850	6.777500
1449.039650	6.852500
1455.992550	6.437900
1455.236717	6.418900
1454.081333	6.523800
1461.338500	6.017000
1454.399067	6.323800
1450.098733	6.532800
1449.920617	6.495400
1453.358850	6.264500
1452.523517	6.277300
1445.355067	6.683500
1449.175367	6.459700
1452.094850	6.253700
1451.414133	6.171900
1443.508800	6.607700
1452.480433	6.069600
1447.944167	6.335800
1438.600233	6.775500
1449.041800	6.104900
1450.502400	5.961800
1446.777183	6.168300
1443.963800	6.307400
1434.544400	6.888800
1438.561317	6.571300
1442.234017	6.348100
1435.813817	6.689500
1437.698650	6.566300
1445.987333	6.045300
1442.988700	6.214700
1437.856783	6.331500
1442.783700	6.007100
1438.194900	6.303500
1440.616200	6.108500
1429.113317	6.715600
1437.526783	6.117300
1430.484400	6.501200
1428.999500	6.527300
1436.012850	6.091700
1431.157200	6.374900
1432.729350	6.238400
1430.344583	6.259800
1430.364983	6.237900
1420.716983	6.825600
1421.960767	6.750700
1430.920283	6.102900
1420.655700	6.675500
1416.706767	6.879100
1423.499917	6.449500
1426.572500	6.272000
1423.482900	6.458600
1430.025017	5.907700
1432.107050	5.738300
1419.215300	6.413600
1429.069717	5.833900
1420.832933	6.318000
1414.728067	6.681100
1418.450717	6.316600
1419.676367	6.238600
1418.443883	6.279000
1419.460967	6.228700
1413.330650	6.475100
1406.978500	6.809600
1413.555633	6.390300
1414.504300	6.294200
1422.125983	5.838000
1422.414483	5.813700
1418.236633	6.011400
1411.268850	6.314000
1415.506500	6.038000
1414.028883	6.055200
1410.742650	6.244700
1408.180867	6.387400
1407.058033	6.454200
1408.123667	6.189400
1408.176650	6.194600
1414.208083	5.810400
1416.602817	5.660800
1415.312800	5.581100
1411.262533	5.763600
1411.064617	5.705500
1401.538283	6.263400
1399.878517	6.366400
1401.066600	6.289100
1407.739600	5.809700
1403.491333	5.970300
1393.602283	6.524700
1408.880850	5.543000
1398.114917	6.187300
1401.640000	5.975300
1399.898800	6.060500
1389.205450	6.564500
1392.617000	6.337400
1395.637433	6.129900
1396.114500	6.091400
1390.260483	6.441000
1396.816083	6.026400
1394.116983	6.035400
1397.234850	5.816900
1388.786850	6.291800
1389.749667	6.224800
1385.768017	6.305800
1386.866433	6.216900
1391.211150	5.949800
1386.038683	6.272700
1376.052333	6.754500
1385.866300	6.143000
1375.351850	6.708800
1379.754083	6.426600
1377.935867	6.520900
1378.641783	6.454200
1384.978633	6.067500
1380.353533	6.333000
1384.213150	5.946800
1381.781850	6.077300
1373.722183	6.535800
1374.905850	6.498500
1382.218133	6.021900
1372.558100	6.473300
1382.729833	5.825100
1375.033550	6.227600
1370.662533	6.485700
1375.944683	6.194100
1372.063017	6.425500
1369.766700	6.510800
1376.746333	6.064500
1377.224017	5.962000
1372.308383	6.253800
1369.937533	6.396600
1373.795067	6.150700
1370.214083	6.229500
1374.969133	5.894400
1382.078750	5.459000
1379.273150	5.582900
1366.869267	6.242500
1373.155933	5.851200
1372.034383	5.831400
1372.631050	5.792600
1370.844483	5.862900
1373.221233	5.725200
1368.850917	5.932600
1379.773050	5.208800
1374.085583	5.514600
1369.783317	5.683900
1366.566000	5.841200
1360.952767	6.154900
1357.232717	6.376900
1360.194867	6.020200
1360.384633	6.004500
1361.124083	5.926800
1363.751050	5.765000
1363.014750	5.716700
1367.059783	5.441100
1345.507083	6.612900
1350.071183	6.343200
1353.234483	6.125100
1355.063517	6.015400
1352.534083	6.059100
1352.943400	5.999900
1363.275300	5.353100
1355.011367	5.796700
1350.715233	6.055200
1354.373583	5.829300
1352.125000	5.857700
1341.274983	6.444000
1354.010033	5.702100
1353.679733	5.700000
1343.541367	6.301600
1348.712800	5.988800
1343.042833	6.281700
1348.460633	5.811900
1338.708033	6.382200
1348.828600	5.763200
1342.961267	6.064000
1338.278517	6.224500
1339.868833	6.098400
1345.969383	5.673000
1337.882933	6.149400
1334.767650	6.323300
1337.570750	6.147500
1330.522900	6.436100
1338.367767	5.961100
1344.415833	5.569200
1334.483750	6.159800
1338.802267	5.858800
1332.242200	6.229400
1345.505550	5.225600
1338.768383	5.648700
1332.446067	6.013300
1341.472433	5.458800
1326.053283	6.325500
1325.306450	6.335600
1326.914533	6.219600
1329.413183	6.044100
1347.249683	4.950300
1344.050817	5.126500
1328.636350	5.969300
1327.012450	5.960600
1328.113283	5.860500
1334.691333	5.404800
1332.936817	5.489200
1333.795350	5.412500
1331.181767	5.540500
1328.664150	5.514800
1327.656400	5.538500
1329.105500	5.456300
1319.813400	5.976800
1324.301567	5.544700
1320.787817	5.753800
1319.596350	5.807000
1329.585583	5.206500
1310.522567	6.195100
1312.553250	6.061700
1329.068733	5.035200
1319.663100	5.540000
1315.014617	5.726500
1316.639600	5.671700
1314.673967	5.798500
1308.148400	6.154700
1311.178167	5.916100
1304.700683	6.209100
1310.898150	5.841200
1312.123950	5.763200
1304.196383	6.227400
1300.920967	6.287200
1305.600433	5.983500
1303.816117	6.043900
1310.526067	5.615200
1315.170583	5.325000
1307.303600	5.786600
1311.981433	5.395800
1307.877033	5.641200
1300.224650	6.049100
1307.852267	5.556400
1304.566117	5.716000
1307.273417	5.548900
1300.118200	5.957300
1307.896217	5.512000
1308.841733	5.229300
1303.439167	5.538400
1311.184700	5.025200
1302.693500	5.483900
1294.934900	5.915300
1301.346650	5.499200
1304.561617	5.297200
1301.192050	5.480900
1292.169383	5.993100
1295.208533	5.680200
1292.534750	5.812100
1298.918900	5.467400
1289.113367	6.028300
1292.463467	5.698300
1279.487500	6.457100
1288.991450	5.849300
1287.399667	5.905600
1293.402500	5.551700
1294.355450	5.490500
1298.021717	5.174500
1294.779550	5.294900
1293.341933	5.284200
1288.340617	5.588800
1292.504967	5.333200
1283.322233	5.846100
1280.252300	5.933300
1286.666783	5.516700
1288.703283	5.324400
1278.938050	5.914700
1280.813917	5.789500
1279.997150	5.826800
1280.277333	5.771100
1280.940067	5.606200
1280.247650	5.642000
1284.271300	5.408300
1285.649500	5.294000
1278.430100	5.554400
1282.095667	5.318200
1288.269917	4.894600
1278.011983	5.476500
1283.611133	5.116200
1291.757100	4.613000
1278.569250	5.256800
1279.447200	5.174900
1278.656100	5.146100
1274.077567	5.426800
1276.886167	5.270200
1277.017033	5.223000
1278.642300	4.992200
1271.577333	5.358300
1281.451017	4.761400
1271.687667	5.287600
1278.831267	4.820500
1270.296900	5.323700
1269.134950	5.317400
1267.789717	5.397400
1261.881917	5.800000
1265.757650	5.504900
1269.066250	5.240000
1272.156717	4.941100
1267.988200	5.143100
1258.795650	5.632100
1264.637917	5.295100
1259.424583	5.579700
1253.671117	5.899600
1255.191533	5.689200
1258.930883	5.438100
1256.349517	5.513200
1261.252150	5.217800
1257.588267	5.422300
1255.638350	5.526500
1254.056950	5.492300
1254.678650	5.418800
1258.455967	5.203300
1258.520117	5.188000
1248.291800	5.663600
1252.814000	5.358800
1258.856417	4.925800
1253.536883	5.274300
1254.482500	5.189600
1250.215983	5.386500
1253.534300	5.153900
1254.291183	5.069700
1254.164383	5.057100
1255.892967	4.932100
1255.076383	4.906200
1249.341533	5.148300
1239.348950	5.736200
1244.281183	5.389200
1246.074217	5.274700
1244.032517	5.391700
1246.752917	5.219200
1241.260800	5.383400
1250.018233	4.851900
1254.701400	4.524800
1262.351417	4.039000
1248.132150	4.859900
1250.377400	4.700300
1234.862517	5.468800
1233.502650	5.532500
1243.000333	4.950300
1234.903167	5.436100
1238.232650	5.177600
1241.072533	4.984500
1226.333300	5.813900
1235.542283	5.257500
1245.927117	4.608700
1236.482733	5.157600
1224.314633	5.710800
1231.889683	5.246100
1219.998817	5.952100
1232.653283	5.177100
1235.457117	4.947400
1227.619783	5.304300
1226.212483	5.366400
1235.009200	4.817600
1231.475400	4.994900
1228.421817	5.109400
1229.875000	5.037500
1221.452667	5.530900
1231.697717	4.904500
1222.143783	5.304300
1228.437250	4.909700
1219.981133	5.406600
1220.625083	5.356500
1224.845383	5.003400
1225.218433	4.973700
1226.958767	4.839100
1216.220950	5.415500
1218.565233	5.273700
1214.069217	5.560000
1220.704367	5.057800
1212.921150	5.463800
1218.423683	5.108700
1206.325900	5.826200
1210.079383	5.569200
1214.561700	5.308100
1205.546500	5.861000
1210.384583	5.579700
1203.865683	5.882400
1214.124583	5.152200
1206.864450	5.554700
1202.953017	5.768500
1211.793183	5.206800
1210.542283	5.212500
1202.013067	5.724100
1204.762600	5.573000
1201.068017	5.764000
1204.690883	5.406000
1202.465117	5.485300
1210.045500	5.033000
1210.763800	4.964600
1202.227650	5.459300
1197.015450	5.752400
1195.035933	5.837700
1200.805883	5.476500
1206.988517	5.092900
1203.608200	5.282900
1207.277633	4.940700
1199.119350	5.367200
1206.851183	4.806000
1199.027683	5.247900
1195.244367	5.482000
1203.400150	4.971200
1202.415583	4.887300
1199.165350	5.034800
1199.266017	5.022100
1191.387433	5.487900
1195.620217	5.209300
1197.230800	5.066900
1199.036017	4.936000
1196.366533	5.019300
1193.210117	5.179600
1194.087450	5.103200
1202.710617	4.560400
1192.003500	5.044100
1195.114817	4.795300
1191.179000	4.967300
1201.631850	4.346000
1193.380150	4.811600
1195.006700	4.679000
1194.543567	4.545100
1192.923933	4.629300
1193.222717	4.609300
1192.284267	4.652200
1192.842217	4.488700
1191.688317	4.520800
1195.083700	4.281500
1185.636400	4.776500
1174.106100	5.450300
1182.570750	4.946300
1175.684600	5.276900
1184.119050	4.679900
1170.862650	5.427200
1177.284350	5.033600
1181.267967	4.771300
1178.556033	4.926000
1171.479000	5.327900
1181.175750	4.697300
1171.850333	5.235900
1171.766367	5.209000
1166.434683	5.511900
1174.554317	5.017900
1175.013500	4.968800
1174.109600	4.872500
1164.510267	5.430400
1168.097717	5.240500
1171.021483	5.066400
1171.006233	4.906800
1181.979967	4.216600
1180.635517	4.203400
1171.873117	4.723600
1171.608933	4.727400
1171.623000	4.728500
1168.820383	4.772700
1168.495850	4.763900
1171.736150	4.475600
1161.346950	5.094500
1164.047333	4.932300
1163.315983	4.973700
1165.026200	4.698500
1163.665750	4.772600
1145.815533	5.820900
1150.451767	5.563900
1157.650333	5.072100
1162.458233	4.674900
1156.560267	5.002000
1156.690350	4.961600
1152.776550	5.181800
1162.975433	4.572600
1158.530900	4.815500
1155.594517	4.857100
1155.034083	4.848600
1160.760433	4.445700
1161.078900	4.425800
1139.919250	5.671100
1144.274867	5.422300
1150.606000	4.905200
1150.859600	4.858700
1157.211917	4.375900
1154.955583	4.514400
1149.411950	4.818800
1149.507450	4.816100
1154.524967	4.446700
1154.039867	4.446700
1161.489083	3.985200
1160.739883	4.023900
1154.367250	4.305500
1160.751467	3.809800
1149.520167	4.429000
1146.425400	4.553900
1146.768717	4.516900
1143.960467	4.667800
1142.970033	4.700400
1137.658717	4.902100
1136.267717	4.967500
1142.920050	4.533800
1137.750667	4.821100
1140.392883	4.671600
1141.398850	4.595900
1142.569050	4.437800
1141.118500	4.491200
1136.818900	4.733900
1142.349950	4.390400
1131.976567	4.923700
1135.318000	4.699100
1128.163667	5.027200
1132.258517	4.794100
1124.103217	5.261500
1126.035083	5.150700
1130.201900	4.868300
1131.804750	4.729400
1135.438467	4.446700
1129.873233	4.737600
1125.944400	4.969700
1129.028033	4.756500
1126.369267	4.818400
1130.682567	4.467700
1122.796233	4.930800
1129.035200	4.542500
1134.245350	4.113500
1122.022150	4.739900
1130.174967	4.233700
1116.072500	5.002700
1117.483517	4.919500
1130.132400	4.149500
1126.045800	4.367300
1113.784067	4.987300
1116.061883	4.815600
1125.130717	4.223800
1113.020033	4.928700
1116.106467	4.748500
1121.814600	4.401800
1129.027533	3.945900
1122.572217	4.321600
1116.929900	4.647800
1120.721450	4.404800
1112.285200	4.838000
1110.216650	4.937000
1118.452750	4.394300
1110.026100	4.875200
1109.992150	4.854200
1113.885450	4.613900
1112.113800	4.667000
1109.236583	4.709700
1106.106650	4.888100
1106.225233	4.868100
1110.405233	4.574100
1109.962767	4.466500
1100.585700	4.994000
1089.539233	5.596500
1105.024083	4.674300
1101.306333	4.897800
1106.034267	4.592800
1102.640967	4.732900
1111.656250	4.168400
1100.961267	4.743100
1102.631017	4.606600
1105.504900	4.416800
1102.124450	4.607600
1093.602100	4.992200
1095.502483	4.812000
1096.315583	4.695000
1097.512117	4.622500
1095.018650	4.751000
1098.744250	4.511000
1105.144817	4.074400
1094.183200	4.611800
1095.916617	4.489600
1096.077583	4.435500
1086.838917	4.984000
1087.549033	4.972800
1088.555183	4.899900
1089.195700	4.720700
1088.729867	4.739800
1089.677633	4.652700
1092.669350	4.442000
1086.884883	4.657200
1089.600033	4.451400
1087.828567	4.520200
1088.497533	4.451100
1092.272467	4.191100
1088.968800	4.398200
1086.615100	4.364600
1077.069283	4.939800
1073.448733	5.153100
1088.281567	4.218400
1069.534417	5.209300
1074.987800	4.832900
1082.005017	4.390300
1088.272950	3.971600
1077.404383	4.580100
1078.540133	4.484400
1079.429633	4.333800
1074.996633	4.519500
1081.128133	4.128600
1073.625850	4.528400
1080.013483	4.161600
1071.514767	4.683100
1062.611367	5.209000
1071.933967	4.603000
1068.402700	4.819100
1071.054883	4.647000
1072.929167	4.550800
1071.660667	4.476700
1067.553233	4.690500
1071.678350	4.396400
1066.351417	4.711900
1065.971550	4.703000
1066.549800	4.680200
1069.032017	4.421800
1070.360650	4.274000
1070.885533	4.158300
1054.656767	5.127400
1061.427683	4.712700
1064.092333	4.559100
1066.710683	4.332300
1059.230017	4.693600
1061.236967	4.567000
1062.429167	4.475200
1060.065833	4.563600
1061.027333	4.410300
1056.925267	4.642300
1056.351567	4.642600
1056.610967	4.616800
1055.766833	4.664400
1056.081217	4.640800
1050.801133	4.808700
1051.163900	4.755500
1046.938833	4.949100
1054.817117	4.468600
1064.261767	3.892300
1053.932600	4.500800
1050.657017	4.564600
1049.181517	4.627000
1047.152400	4.698500
1047.841650	4.641500
1045.026567	4.815400
1056.322417	4.139500
1048.778317	4.499200
1046.920583	4.616400
1041.636050	4.918100
1042.515117	4.845400
1045.848850	4.599200
1047.031533	4.417200
1049.482783	4.221600
1053.423950	3.936500
1040.913200	4.652600
1035.898083	4.944300
1043.181600	4.484300
1041.568150	4.449200
1040.193500	4.514900
1039.054900	4.529600
1027.810300	5.190200
1038.100633	4.594800
1041.365117	4.400800
1037.644017	4.449100
1043.910283	4.059300
1028.083500	4.971200
1041.248017	4.163500
1034.748700	4.489400
1030.771133	4.695900
1039.931767	4.082200
1025.704200	4.882400
1034.624850	4.362800
1032.128833	4.497300
1030.757683	4.487100
1028.500167	4.585600
1030.623117	4.389100
1035.255717	4.088800
1034.198883	4.116300
1031.612133	4.239600
1026.810967	4.452400
1020.321517	4.737700
1022.620050	4.574900
1025.510400	4.396400
1023.577467	4.447600
1023.440783	4.338600
1025.573917	4.181500
1016.264367	4.711600
1021.179767	4.400800
1021.378000	4.382600
1014.625850	4.799900
1017.646733	4.476900
1017.149183	4.496100
1023.382483	4.116900
1018.798450	4.385600
1024.023083	3.947700
1025.060717	3.884200
1019.706367	4.142500
1016.908917	4.276600
1010.732250	4.588400
1022.249217	3.890200
1016.242950	4.233500
1019.376600	4.026500
1021.677933	3.810900
1024.508583	3.519000
1011.233333	4.268400
1004.485800	4.676900
1007.286333	4.474200
1008.668300	4.277600
1003.669017	4.541200
1009.455867	4.155100
1000.791483	4.671900
1003.674600	4.505900
1003.767733	4.500000
1012.985167	3.868600
1005.438050	4.284500
1011.739883	3.833100
1005.577750	4.173200
1002.991983	4.298700
1001.780717	4.392100
1003.964983	4.086600
999.395250	4.341200
1005.292783	3.953700
1005.369183	3.945900
1004.121883	3.894000
994.793817	4.389100
996.337833	4.299900
994.988667	4.312300
998.188933	4.116300
996.949267	4.177300
995.850167	4.142500
995.082933	4.109700
993.927700	4.174700
992.710717	4.243900
988.466267	4.473700
987.972233	4.400700
990.410250	4.235900
991.990067	4.124200
983.992617	4.590700
989.277750	4.266500
988.141367	4.335700
989.523933	4.137600
981.755850	4.577900
984.112150	4.388000
991.144800	3.961700
983.809050	4.392800
989.166533	4.073700
978.847817	4.584100
986.727850	4.075400
990.037083	3.823500
994.292600	3.531500
981.978500	4.250900
978.799033	4.450200
980.822950	4.261100
977.171950	4.362200
983.651867	3.965500
983.374800	3.984500
988.264600	3.653300
978.212467	4.120300
981.027383	3.924300
976.101900	4.194200
970.448050	4.517600
971.826150	4.445000
971.733600	4.466600
979.822833	3.822600
976.116650	4.028600
964.977400	4.696400
968.959033	4.420200
971.055117	4.174000
970.692850	4.130900
967.812183	4.278900
967.646083	4.268400
968.619883	4.198500
968.423133	4.208100
963.021367	4.479100
961.446367	4.488100
968.445117	4.042900
961.035350	4.439300
965.510283	4.167900
962.666783	4.306200
968.690367	3.867700
968.440833	3.739800
963.596267	4.010500
957.238067	4.305100
959.017517	4.209400
960.865200	4.080800
962.541583	3.965100
968.219800	3.475100
952.755917	4.371400
964.571567	3.671800
963.754017	3.709000
963.454217	3.598000
963.850717	3.503200
963.077450	3.481700
963.344050	3.439100
956.869300	3.785900
950.762050	4.156700
950.555617	4.075600
953.657400	3.822200
951.490750	3.910100
950.554250	3.937100
948.043467	4.082800
961.075400	3.278300
957.242000	3.458300
943.102883	4.235400
947.764600	3.927500
958.896967	3.229900
957.565483	3.292800
946.153150	3.913700
945.631617	3.937600
949.629017	3.665200
943.168750	4.040900
936.409800	4.423100
937.605550	4.366100
947.529350	3.748400
940.037367	4.205500
934.050133	4.533300
940.752450	4.123100
934.653800	4.242200
933.683100	4.312100
936.192500	4.101500
942.484900	3.703700
944.263017	3.513100
943.239400	3.577700
941.776700	3.650900
936.400233	3.965400
934.253983	4.047300
941.159200	3.613100
934.607950	3.978200
937.075217	3.821500
938.511267	3.679000
934.999283	3.789000
935.127083	3.750000
933.008400	3.829700
931.726450	3.888800
930.874200	3.913700
928.917317	4.027900
933.711133	3.607500
926.169817	4.010800
927.747533	3.833700
928.469250	3.776900
927.298233	3.818700
924.135750	3.990800
910.265700	4.819100
919.360000	4.280000
915.610217	4.467700
921.532233	4.092900
919.382000	4.191800
922.334300	3.998600
921.508000	4.037600
922.394017	3.955000
918.833050	4.155800
918.855133	4.133400
918.896550	4.057100
917.877500	3.978200
921.149983	3.768600
912.734683	4.214100
922.545617	3.579100
914.701100	4.014200
915.061500	3.987800
912.929367	3.957700
920.716033	3.466200
906.461350	4.311500
913.119000	3.915800
910.569783	4.018800
910.920267	3.988900
912.578267	3.841300
917.914800	3.490100
921.306183	3.258900
907.139400	4.086800
907.943800	3.866300
912.582667	3.556300
913.763167	3.443200
906.863367	3.869800
902.156667	4.131100
902.637050	4.037600
913.736617	3.311200
914.180617	3.248800
909.678433	3.490800
908.560783	3.535500
898.699183	4.087500
898.005200	3.990800
905.424483	3.497100
898.347517	3.830500
895.339183	4.000500
895.790650	3.947600
889.441517	4.322800
891.901900	4.018400
891.657533	4.011900
893.628383	3.852000
897.370350	3.616400
893.910267	3.819100
896.017717	3.683200
889.642983	3.987300
887.803300	4.086200
886.041317	4.166800
885.779283	4.183800
886.979017	3.979900
893.366717	3.562300
888.720317	3.799000
885.729683	3.966300
890.931117	3.513100
888.699850	3.627200
884.550583	3.840600
872.939533	4.505400
876.201167	4.313200
880.787633	3.974700
887.102200	3.591800
884.939733	3.700500
885.298033	3.657900
883.436533	3.711300
881.388800	3.796400
880.869500	3.775400
881.183533	3.734100
873.785783	4.158900
883.075917	3.586600
878.146333	3.711300
870.880433	4.119900
880.213700	3.563000
874.182367	3.905500
877.453983	3.664200
877.072950	3.644300
880.795833	3.366300
876.666950	3.570800
884.325733	3.051600
868.809517	3.983200
872.289967	3.675700
870.261817	3.703900
877.110667	3.249400
869.160467	3.673000
868.260983	3.714900
871.137633	3.519000
865.502567	3.806200
868.476650	3.522800
865.504633	3.663000
864.059917	3.737800
863.969700	3.728900
865.782200	3.558800
862.399933	3.745500
864.690150	3.512000
863.938017	3.558100
865.847467	3.453700
864.034900	3.539000
857.276700	3.783800
857.705600	3.726200
862.909883	3.355800
859.746717	3.534100
857.110517	3.665200
848.674250	4.164800
853.937083	3.824700
849.699417	4.062100
853.893783	3.784500
855.241617	3.697600
856.090633	3.539400
850.561717	3.705700
855.136950	3.408200
850.383483	3.627000
849.086167	3.692800
856.995167	3.206500
846.247517	3.823000
846.695700	3.683900
849.103617	3.514900
845.380867	3.668200
850.255617	3.374500
842.948300	3.789800
842.950933	3.777600
839.966667	3.809200
852.830100	3.025400
845.261850	3.456800
843.366567	3.577000
837.427233	3.792000
833.928967	3.979300
839.046683	3.624300
843.846200	3.364400
841.736150	3.467000
836.983150	3.736100
834.481317	3.738700
840.938533	3.346500
839.295717	3.424000
842.677800	3.209600
837.431083	3.437100
833.226917	3.625000
831.223400	3.717200
834.635583	3.463500
829.391300	3.772100
838.900033	3.184500
832.790000	3.531500
837.913600	3.070100
831.373433	3.412800
830.657400	3.398600
832.810917	3.251800
831.617350	3.308000
826.128333	3.639000
835.910367	2.902300
825.751350	3.475700
822.718517	3.571900
826.774233	3.344700
832.836550	2.962400
829.975000	3.135500
816.760400	3.835100
824.900867	3.327100
828.055233	3.115500
819.135350	3.582500
823.020483	3.326400
815.274433	3.779700
816.080583	3.676500
817.922800	3.483800
816.242367	3.549100
811.093367	3.841000
816.137417	3.502600
815.188383	3.438900
814.359467	3.483100
820.325767	3.097000
821.184283	3.015300
813.780400	3.304400
813.695667	3.287200
804.032933	3.821700
810.729133	3.413100
814.873250	3.105500
811.963400	3.262100
806.925683	3.571800
816.640550	2.974400
797.825483	3.953700
807.569383	3.331500
810.743400	3.117500
818.692767	2.647000
805.981917	3.284500
806.271133	3.224700
809.654317	2.957200
809.554933	2.954400
804.369933	3.233400
800.449250	3.436400
805.358550	3.035000
804.490950	3.005900
801.081467	3.187000
801.706433	3.120900
798.901817	3.268600
790.832867	3.751600
799.138183	3.246900
795.139433	3.485400
798.404383	3.259500
787.448467	3.736900
783.100400	4.014200
795.702433	3.212400
802.078750	2.852300
793.116550	3.332900
792.531183	3.355800
792.042333	3.370200
791.026467	3.425200
789.828867	3.371200
784.816417	3.638200
787.947183	3.406500
795.929867	2.921500
787.669350	3.432500
793.790350	3.068600
785.264050	3.481700
786.115517	3.430300
790.228083	3.184500
785.018933	3.462000
782.772267	3.510700
790.853833	2.945400
774.716367	3.817300
783.695217	3.269800
783.621833	3.246300
778.085667	3.573100
784.387217	3.166300
785.897450	2.944700
784.261617	2.987800
784.332167	2.930500
778.265467	3.286900
777.863350	3.281300
783.578183	2.907600
772.436883	3.414000
776.858283	3.145200
774.950417	3.247900
779.850117	2.946700
774.730767	3.191200
781.486217	2.774200
764.013800	3.733400
776.209350	3.006800
773.627467	3.130900
773.522050	3.155900
771.430350	3.170000
774.664000	2.873900
775.825083	2.790600
775.862633	2.773200
775.048100	2.797400
773.736217	2.837800
771.408967	2.904700
767.100583	3.000000
762.343817	3.264400
764.515183	3.095400
757.012700	3.557300
765.191800	2.915900
759.993083	3.200700
762.935317	2.956000
754.057233	3.483000
752.609267	3.580000
757.664783	3.277500
750.364100	3.591800
749.002983	3.639000
749.944867	3.530200
759.145867	2.983000
753.303500	3.310700
754.890550	3.212900
751.890117	3.232000
758.738433	2.825100
753.161600	3.133400
755.046367	3.020800
762.882717	2.463400
750.329017	3.137200
758.905983	2.588100
754.228167	2.824900
739.616683	3.670500
746.855617	3.243700
756.077983	2.654700
753.432550	2.699900
747.823567	3.020800
747.793167	2.980600
750.394500	2.811800
748.180583	2.939700
745.300700	3.086000
748.418883	2.775600
747.491333	2.787900
743.259100	3.014900
742.052217	3.073900
742.084083	3.063300
746.078333	2.781300
743.701550	2.778800
740.927850	2.923700
733.759017	3.350200
735.190767	3.269800
730.586817	3.422200
740.322600	2.830700
735.452833	3.062100
732.610783	3.243900
735.158567	2.936200
731.288000	3.178100
729.891017	3.234400
728.712150	3.265100
727.106333	3.361800
729.572617	3.202900
732.473667	3.028000
731.950517	3.035200
731.969567	3.045100
728.857150	3.151700
738.911217	2.545300
724.297133	3.375000
728.314667	3.139300
729.917150	2.923700
722.049433	3.364800
726.257933	3.042600
725.077050	3.100100
726.038717	3.035800
720.910000	3.350900
731.167567	2.605300
728.570550	2.703200
729.241183	2.584800
720.425267	3.091900
723.399617	2.887900
724.843717	2.774200
718.340017	3.062800
722.525483	2.714700
713.143000	3.253100
714.857100	3.146000
707.003283	3.599700
714.588550	3.117800
722.224750	2.614100
715.154267	2.991400
716.597600	2.886500
710.047650	3.242000
712.215717	3.098800
712.703667	3.035800
705.266183	3.503400
715.518817	2.646700
717.796550	2.464100
711.109600	2.852900
711.623433	2.807700
708.032633	2.859300
708.360950	2.816600
713.958150	2.477300
708.767150	2.778800
708.579450	2.689700
707.967717	2.652400
703.580850	2.880200
700.919600	3.035600
711.651033	2.359200
707.328833	2.595300
703.489933	2.788500
697.246133	3.105300
702.665883	2.765400
699.092583	2.908200
703.217767	2.654500
703.511367	2.620300
696.144583	3.030600
694.242367	2.988100
686.044033	3.446400
691.251100	3.142100
693.169233	3.007200
692.801033	3.009600
689.381050	3.210200
691.822600	2.882000
693.782717	2.764000
692.996417	2.792800
691.223917	2.884900
690.817200	2.862800
684.543400	3.207200
682.732400	3.236900
683.422000	3.189800
682.644833	3.224700
689.492950	2.844200
689.493467	2.779900
686.269433	2.867700
678.230483	3.322800
684.046533	2.946000
667.266167	3.910000
686.069500	2.818700
682.833267	2.963200
686.130017	2.643100
687.939500	2.493200
684.019833	2.696700
689.194067	2.365000
680.950733	2.797200
686.281117	2.446000
679.935450	2.822000
680.834017	2.752300
676.761067	2.917300
675.014750	2.984600
683.657300	2.446700
678.933317	2.725600
664.875483	3.539400
676.021000	2.854700
678.067050	2.605400
681.223367	2.363800
675.202867	2.685400
669.535367	2.992300
674.422833	2.705400
677.751183	2.477100
664.498400	3.194900
667.231067	2.957200
667.347033	2.931300
665.488917	2.977300
666.952417	2.888200
663.391050	3.079100
660.623733	3.217800
658.758600	3.194600
666.691433	2.711100
661.616850	2.964500
661.994967	2.944300
658.154483	3.122700
655.606383	3.252600
662.949783	2.764200
661.766267	2.825200
657.737817	3.057100
655.984533	3.160800
656.409233	2.950200
657.835367	2.833900
661.054767	2.644000
667.724350	2.219600
663.670067	2.314300
663.377200	2.261300
641.707600	3.481700
654.205650	2.753300
653.523450	2.761400
645.547783	3.217500
649.810133	2.901900
646.535583	3.002400
647.761233	2.895600
648.783867	2.801800
653.149767	2.527900
648.827383	2.755200
654.260167	2.367100
637.466567	3.260800
642.095517	2.986000
641.643350	2.945600
642.249050	2.870600
650.348767	2.387800
643.778950	2.779700
638.524633	2.944200
641.651867	2.733100
634.044150	3.175400
633.336917	3.211600
640.002167	2.812900
643.865883	2.552400
641.645033	2.524500
645.260650	2.302100
637.555433	2.707500
642.238383	2.439900
639.325533	2.481900
635.294200	2.640500
634.293700	2.660600
630.163100	2.884400
628.591017	2.946700
633.609050	2.662100
638.399800	2.345900
625.509017	2.967700
626.885400	2.888600
626.154333	2.871600
627.439600	2.796800
627.738033	2.770200
635.502767	2.284300
629.575850	2.496800
629.081850	2.501600
627.162867	2.600500
634.082317	2.169700
620.987100	2.843900
622.973733	2.684400
615.889833	3.072600
619.250700	2.860100
620.100250	2.799800
622.989283	2.606700
614.982917	2.972200
616.233367	2.880700
613.553033	2.980800
612.265167	3.033700
615.207317	2.883700
614.399233	2.881800
611.381550	2.983400
611.681450	2.890700
612.800033	2.817300
624.120317	2.101900
616.557450	2.533400
605.389900	3.168200
613.623883	2.677800
620.049117	2.227600
611.734283	2.704800
616.169583	2.412600
609.047033	2.828100
599.418350	3.283700
600.835250	3.162800
607.758267	2.670400
603.502200	2.921300
601.980283	3.012600
607.710183	2.656200
612.120983	2.272200
608.389050	2.442500
603.108217	2.723800
598.930133	2.955900
601.197350	2.785100
599.532083	2.878500
598.712817	2.854900
604.170300	2.499800
616.666183	1.750800
607.154883	2.272200
598.448383	2.763600
601.944667	2.492500
598.418733	2.669100
601.332133	2.458500
597.735583	2.645100
602.084217	2.368000
598.493850	2.548100
597.922283	2.422200
588.135333	3.001500
590.142217	2.881300
587.981233	2.980200
590.358483	2.730300
591.406950	2.658200
593.909517	2.483800
593.902283	2.467800
592.522133	2.528100
591.880417	2.557000
597.892467	2.022700
599.311300	1.877300
585.018950	2.679200
588.138117	2.469400
583.016583	2.765700
589.143233	2.386500
587.129000	2.415500
590.339117	2.151100
576.315200	2.993900
582.624900	2.584100
585.972517	2.344000
583.471983	2.441400
583.882133	2.365500
585.741500	2.202500
580.898033	2.443200
583.279233	2.287200
586.696683	2.048400
586.633583	1.924200
578.583333	2.372100
575.540117	2.509900
580.967533	2.195100
569.368433	2.829000
565.109117	3.100000
570.155933	2.676900
570.538800	2.629700
568.554533	2.703300
575.425600	2.278400
570.564700	2.560400
567.483700	2.724500
575.230433	2.115900
571.711667	2.306800
571.317750	2.309000
569.498083	2.403000
570.969433	2.128500
563.279183	2.602500
571.906633	2.065500
564.615550	2.512700
559.116483	2.780700
556.477667	2.823400
553.402333	3.000000
553.674067	2.946100
566.930333	2.156100
557.818500	2.623100
562.129000	2.352200
557.733233	2.608500
560.061733	2.400300
553.673583	2.674800
552.259367	2.751700
546.778600	3.083000
546.031867	3.121000
548.083117	2.883700
548.904650	2.803100
557.482967	2.273800
557.162567	2.317900
549.095917	2.693200
548.714117	2.702200
538.933333	3.153900
545.952317	2.733400
540.361233	3.057900
548.271517	2.580100
545.329167	2.648800
543.399333	2.722500
539.346717	2.883700
546.146483	2.503200
550.513783	2.247300
552.360300	2.135900
553.636817	1.995100
544.942250	2.431400
538.983983	2.694900
542.244317	2.492800
545.159050	2.309000
535.174267	2.892100
545.635883	2.252700
545.103783	2.164500
544.075633	2.202600
543.601033	2.199300
541.565867	2.317300
539.713467	2.416900
535.319350	2.687900
540.217800	2.324900
543.014933	2.118000
529.182450	2.933900
529.157767	2.949700
541.579533	2.087100
537.521600	2.278100
533.728217	2.429200
525.001917	2.936200
533.264200	2.450600
530.930117	2.569000
537.095183	2.111700
528.719250	2.507300
530.197917	2.402500
527.705583	2.533200
528.029133	2.490000
527.798567	2.451700
526.628183	2.463300
532.890250	2.066300
532.085283	2.081700
525.583417	2.437000
521.534917	2.644900
522.355617	2.460400
515.666750	2.838800
518.723950	2.622500
524.272833	2.278500
530.903917	1.868200
527.140650	2.057000
528.045117	1.854400
524.117767	2.051500
525.982600	1.903700
527.799867	1.798000
519.509767	2.173000
524.245033	1.821900
523.241550	1.824200
513.645317	2.366200
516.000917	2.219200
515.850833	2.231400
516.340883	2.065500
512.271817	2.274700
510.502533	2.369700
510.716967	2.338300
505.318100	2.618600
506.404083	2.432700
505.289117	2.488300
509.899350	2.182700
510.954317	2.111200
508.339200	2.218700
505.228233	2.369700
512.351017	1.933600
507.449717	2.173300
503.831300	2.241800
499.176433	2.508000
509.813467	1.838200
501.621900	2.314100
507.045333	1.982700
504.854467	2.108200
489.749967	2.864500
497.272200	2.406800
501.846083	2.128500
501.688633	2.143800
501.390850	2.022200
496.166350	2.289500
516.833067	0.995500
498.199217	2.078200
492.563683	2.426700
489.247250	2.638400
495.309500	2.202800
485.824433	2.684400
489.676517	2.452300
501.634067	1.743100
499.604333	1.789800
488.289483	2.352000
492.717317	2.062000
492.409800	2.039300
489.998583	2.157300
495.245767	1.842100
486.685500	2.321300
492.021733	1.879500
487.256033	2.107500
486.372083	2.090400
485.720767	2.140300
480.777400	2.411000
486.153467	2.089000
478.675983	2.399700
478.263983	2.405400
475.021517	2.611000
486.851200	1.908800
483.669750	1.993100
473.029700	2.564600
492.044767	1.373200
477.692467	2.196100
471.677733	2.567700
465.797950	2.906600
469.079583	2.667600
469.198017	2.561200
477.115817	2.070100
477.761017	2.027800
470.685017	2.398000
472.319767	2.173000
470.664917	2.275300
464.985500	2.583200
471.394067	2.215600
480.119350	1.667900
473.202367	2.087200
472.178117	2.051500
467.638433	2.320800
467.624383	2.202900
470.741000	2.020100
459.720017	2.681800
469.225667	2.130700
465.491933	2.291400
469.686583	2.011200
470.069367	1.951900
472.144200	1.834100
475.569367	1.535800
467.631800	2.007800
468.256517	1.923400
456.709167	2.572900
466.188167	1.962100
467.908050	1.811300
457.137717	2.439400
464.609833	1.973700
460.586083	2.175300
463.143933	1.894500
467.361150	1.636100
453.861233	2.427000
459.731950	2.062700
457.141317	2.105500
457.889600	2.007800
445.656650	2.672600
452.127167	2.272000
455.671167	2.021800
458.660400	1.821500
456.250833	1.810800
447.588550	2.297000
458.609217	1.614400
451.019867	2.098600
450.135050	2.005700
439.494533	2.571000
454.986650	1.580900
445.487067	2.161900
448.437583	2.005200
447.150633	2.044500
441.718133	2.263200
442.874550	2.160500
445.873717	1.939600
441.619000	2.135000
455.290017	1.320700
440.958333	2.192100
446.329883	1.822500
436.693283	2.259600
436.730117	2.236600
437.475267	2.156200
437.855450	2.152700
436.196933	2.242500
434.707533	2.335800
438.016217	2.092600
450.410917	1.333000
442.294850	1.755200
437.527100	2.019200
438.390800	1.847900
440.619617	1.695100
443.805767	1.433500
443.081567	1.434700
437.271000	1.756100
432.199400	2.051300
423.074650	2.458100
424.755650	2.302700
430.653733	1.913400
414.643183	2.861400
416.128250	2.765600
423.629000	2.337200
429.579083	1.936800
420.345467	2.454400
422.320033	2.319900
419.066400	2.480300
420.633567	2.366500
428.189733	1.784100
427.340750	1.793600
430.826333	1.516500
423.467867	1.929100
416.598317	2.321200
415.896100	2.322500
423.675817	1.698400
419.301783	1.986000
421.226783	1.803300
422.037100	1.721600
417.285067	1.992700
421.620433	1.710600
423.679600	1.470200
417.576883	1.800900
416.441600	1.826300
418.499867	1.747300
421.718417	1.472800
417.516450	1.609700
422.678817	1.261300
415.195817	1.666300
409.235783	2.005200
406.380483	2.143500
413.861983	1.650300
403.362350	2.160500
405.780000	2.037800
408.350683	1.825200
404.926350	2.024300
410.406883	1.670400
407.075983	1.851000
401.241950	2.092100
394.514367	2.466100
395.435733	2.363700
400.471100	2.064200
403.780750	1.853300
404.705200	1.799300
398.545667	1.989100
400.250550	1.884200
402.725467	1.713100
400.974167	1.810300
398.241833	1.923900
398.839933	1.869900
392.530617	2.243800
399.232000	1.811900
399.665967	1.716100
398.242750	1.699700
399.211433	1.589400
393.240583	1.917900
396.114050	1.756700
394.581267	1.820200
395.501317	1.708900
390.166583	1.913100
389.549600	1.928300
392.100350	1.716200
386.363167	2.049400
395.164517	1.500100
392.667483	1.639500
391.267383	1.613100
386.094650	1.869200
387.771400	1.713500
383.384867	1.974100
387.339083	1.735800
388.077667	1.671100
382.615433	1.877400
383.520567	1.798000
388.986550	1.399400
383.681783	1.686600
383.123833	1.697700
379.436750	1.927700
375.261650	2.049800
376.842817	1.915600
378.008350	1.847600
378.577517	1.794100
379.565417	1.671700
376.596167	1.747300
380.798183	1.478100
376.822817	1.716400
370.718683	2.034000
375.377300	1.593500
368.379217	2.023600
368.969167	1.950100
363.089833	2.269200
363.180400	2.263700
366.958517	2.019400
371.307383	1.751400
372.606700	1.658000
375.271483	1.421100
364.682350	2.037800
370.381117	1.711900
367.828667	1.833100
366.242917	1.854400
362.058967	2.066800
373.027517	1.362700
370.305683	1.521900
366.925400	1.687100
369.162433	1.524600
368.578133	1.482300
368.348067	1.394200
364.607600	1.568600
360.281133	1.811700
361.413983	1.701600
362.488183	1.505400
363.363233	1.404600
355.993117	1.799200
351.526117	2.064700
348.323783	2.229000
357.564850	1.658000
358.020017	1.570000
348.045400	2.189900
357.139417	1.585600
353.005833	1.803300
352.320133	1.853400
359.221650	1.452200
350.702050	1.808900
350.085933	1.803300
362.085650	1.024400
350.824200	1.679900
354.255767	1.449100
356.242033	1.329300
344.623933	1.955400
349.491300	1.638200
353.808383	1.305000
345.841317	1.778800
347.332000	1.604000
352.303967	1.219900
345.913033	1.478100
345.814983	1.508100
346.062117	1.462300
343.701467	1.609600
348.900833	1.237500
343.675750	1.420400
338.539000	1.712600
340.477883	1.577700
337.403683	1.752600
340.270233	1.594500
339.708083	1.608000
336.249650	1.753100
342.653750	1.354400
345.855783	1.112400
349.705033	0.869700
340.957917	1.363300
337.738650	1.572500
339.334817	1.314400
336.002733	1.477500
338.054233	1.316400
338.203717	1.299100
332.274350	1.535300
333.894817	1.392100
332.257633	1.486500
335.703000	1.237400
330.427200	1.540400
330.668450	1.507100
329.207617	1.560400
323.486267	1.790800
326.648600	1.569500
325.145083	1.650300
328.934117	1.422400
323.971017	1.568200
318.425833	1.904700
325.402117	1.433800
320.594200	1.729100
316.632717	1.971100
319.356917	1.795600
327.597133	1.195500
317.155750	1.784000
322.078883	1.409100
319.490800	1.532900
316.687267	1.692400
321.698717	1.403200
311.855183	1.877400
314.595133	1.663200
312.730683	1.742400
313.445200	1.701200
319.526433	1.336500
322.287700	1.139900
326.967733	0.775200
317.435967	1.287400
310.583017	1.703200
320.122850	1.106300
310.545183	1.654800
312.334167	1.513000
311.925300	1.508900
312.504400	1.468100
301.373883	2.094900
313.364417	1.356100
307.088700	1.712900
314.503650	1.253900
309.670517	1.525300
312.088933	1.351200
311.289167	1.394200
306.897350	1.610600
304.147733	1.767000
311.744667	1.033000
297.748533	1.874100
303.916350	1.399400
296.187867	1.853800
300.807567	1.546900
292.507683	2.030100
303.793317	1.282300
299.023067	1.555000
299.076000	1.541000
298.063650	1.584200
294.204083	1.750800
295.887483	1.620000
302.370817	1.190500
298.066300	1.430900
295.978217	1.534000
296.495883	1.478100
298.682633	1.263000
310.046833	0.498300
298.674500	1.107200
291.087567	1.528300
293.305083	1.326000
292.928517	1.242400
292.535500	1.233800
281.341067	1.854100
284.889350	1.624100
281.045867	1.869400
289.682767	1.333000
287.043983	1.371900
290.765283	1.129800
292.675833	0.959400
280.279400	1.687100
289.571417	1.113400
283.065683	1.482300
284.000300	1.241300
286.284567	1.105000
271.869517	1.977400
273.155100	1.891100
281.266617	1.391500
280.053417	1.401700
284.431133	1.136100
280.268317	1.381900
280.647233	1.339500
275.442783	1.626900
279.566467	1.326700
277.767500	1.346300
271.541967	1.666900
281.046383	1.041000
281.165033	1.000800
274.649417	1.387600
270.520667	1.633000
269.957850	1.512200
266.665050	1.680500
271.885117	1.365700
268.897983	1.552200
264.644067	1.744900
259.785750	2.007800
270.614717	1.328200
256.717017	2.151100
261.142250	1.878800
266.616500	1.538600
267.046233	1.434000
270.053200	1.241000
257.180733	1.944900
258.421017	1.822600
259.191217	1.754800
269.476333	1.135800
262.623817	1.383700
271.707517	0.839500
270.488917	0.894400
271.641167	0.810700
262.977550	1.221800
253.322467	1.700800
264.740017	1.017400
270.046367	0.646900
261.624767	1.107700
263.882000	0.968900
259.127750	1.181900
262.742817	0.865300
253.296367	1.394200
258.051617	1.037500
256.987517	1.088500
247.996150	1.613900
255.437100	1.166600
252.309450	1.296800
253.217900	1.230500
248.656333	1.479600
245.202500	1.671500
247.195883	1.428900
246.699133	1.430100
252.727667	1.037500
248.880400	1.246700
236.195300	2.039300
241.841017	1.679200
253.333100	0.905600
243.082500	1.452500
247.428500	1.177700
244.338867	1.259800
246.202433	1.152900
244.764467	1.228300
236.786117	1.656400
238.421600	1.408400
244.890467	1.042000
235.969700	1.536500
242.922050	1.098500
237.655167	1.300900
237.978700	1.255400
239.532700	1.101500
236.876267	1.242700
233.277017	1.443700
235.512033	1.319100
236.774917	1.103500
233.908733	1.245900
234.244150	1.176500
224.830300	1.732100
223.059467	1.835500
228.559050	1.498400
235.231000	0.961400
229.943800	1.257200
233.751633	1.043100
232.043267	1.129900
231.897483	1.093800
225.803767	1.341700
223.225333	1.467600
229.672267	1.097200
229.246283	1.088400
224.365567	1.242700
222.338417	1.331200
219.680400	1.432400
217.693433	1.548000
231.642983	0.711300
224.642500	1.087700
220.527317	1.176700
217.617617	1.341700
218.724983	1.228800
215.907867	1.361800
208.297083	1.801800
212.163983	1.574700
225.594500	0.773300
233.046450	0.304700
219.481250	0.953600
219.353817	0.928000
217.576133	1.000800
217.695600	1.006700
221.674317	0.670300
215.876417	0.935500
212.024383	1.089900
215.726083	0.880800
212.026633	1.109400
215.896083	0.871500
206.746050	1.391300
207.220833	1.244400
210.336233	1.033500
200.707583	1.532400
205.309917	1.252900
209.930617	0.956800
212.483317	0.808300
208.266583	1.068000
207.333967	1.097800
195.495083	1.598700
205.952733	0.957300
206.159083	0.926700
203.137250	1.091300
202.012417	1.057000
194.453817	1.515400
201.894500	1.064300
200.675333	1.141500
198.845067	1.118800
195.722983	1.284000
200.612867	0.965800
198.407683	1.102500
195.926267	1.238800
199.810917	1.004500
194.980617	1.210600
193.774283	1.211400
204.533717	0.551500
193.117883	1.223700
189.499883	1.407900
189.227233	1.373700
189.458050	1.359200
192.196900	1.148000
182.364717	1.732600
190.505800	1.203800
189.189633	1.267500
195.335400	0.881000
194.168483	0.942300
184.560800	1.319000
184.693450	1.296800
192.713783	0.774000
189.744433	0.923400
195.196917	0.528700
182.492283	1.285500
184.442567	1.183000
187.512283	0.969600
184.450783	1.008000
181.089200	1.202300
182.322233	1.091700
179.045683	1.260900
175.857650	1.430900
181.445600	1.104500
181.225033	1.036800
174.395283	1.394700
183.923017	0.733300
176.897467	1.151200
170.369267	1.553500
176.750900	1.164800
174.562367	1.261600
179.653267	0.927400
180.198150	0.893300
176.703783	1.074600
176.155983	1.090800
171.084217	1.383700
173.368567	1.211800
172.331767	1.089100
165.213967	1.502800
176.550833	0.756900
175.320583	0.815100
167.098333	1.304700
171.951617	0.984100
161.535700	1.518500
166.465183	1.231200
167.467517	1.117900
173.314100	0.764000
171.153633	0.833700
165.003617	1.171600
175.285467	0.570700
174.937500	0.577700
168.795850	0.865700
164.518967	1.091200
166.469833	0.897600
173.055383	0.482100
171.175917	0.579700
162.961333	1.032600
159.912117	1.172800
162.891217	0.885700
161.383650	0.968000
165.706350	0.685700
159.886117	0.985900
152.938967	1.285600
159.683317	0.860800
153.977150	1.169000
149.462900	1.424000
153.666467	1.149700
155.250117	1.042300
152.465700	1.146500
153.945933	1.041900
156.099083	0.856500
153.644933	0.994200
150.243200	1.199300
148.583383	1.280400
142.477950	1.554500
143.638817	1.489900
147.204950	1.260800
150.995317	1.033300
147.937650	1.104500
142.383900	1.387400
144.307133	1.270200
148.647717	0.985600
146.989033	1.061100
143.266767	1.265500
140.080150	1.360400
134.247300	1.648400
142.869000	1.093700
140.736117	1.189600
145.161733	0.897600
146.359250	0.817700
148.936783	0.604200
143.105133	0.789000
139.870100	0.974600
144.302300	0.685700
144.506117	0.632200
142.211667	0.645700
136.104317	0.966700
138.836900	0.794900
134.498217	1.016500
137.545250	0.831800
132.931367	1.110100
125.898433	1.376700
129.521733	1.153500
127.942733	1.190700
130.074217	1.079500
133.850667	0.712300
135.285483	0.612000
121.056483	1.412700
129.453067	0.885700
128.566467	0.904000
131.753033	0.676800
131.011383	0.696600
127.487567	0.888700
134.500217	0.448900
125.204283	0.850200
129.069667	0.631000
118.858483	1.246500
121.125833	1.100400
118.023867	1.160800
115.258267	1.314700
116.118850	1.256600
121.396617	0.934000
113.198467	1.396300
116.176517	1.249000
118.669400	0.965300
123.561083	0.623100
114.024483	1.112400
117.997383	0.866400
116.461850	0.956000
110.825783	1.298400
105.619533	1.461300
113.945317	0.945700
110.128150	1.177400
119.220367	0.625900
107.160667	1.219300
106.336550	1.247300
111.216883	0.955500
104.340800	1.330700
106.435767	1.200700
109.748983	1.001700
108.364150	1.049900
108.398067	0.939400
111.324300	0.745400
108.435150	0.896600
103.547833	1.195500
104.879450	1.105700
111.180700	0.706700
101.242233	1.153800
98.352200	1.319900
105.173983	0.930000
95.999567	1.474600
99.824983	1.116900
105.120550	0.776600
97.854583	1.163400
94.466650	1.353500
104.249917	0.760600
107.140867	0.580300
107.614250	0.404600
104.529433	0.544500
102.398650	0.620000
105.538300	0.423800
101.458583	0.647400
93.232417	1.103500
89.715117	1.158100
94.851717	0.883900
103.581050	0.345200
98.789483	0.600600
92.157567	0.892300
86.373567	1.180000
92.802450	0.770000
90.932600	0.813500
91.809217	0.752800
93.710283	0.632400
86.098517	1.051000
89.403133	0.751500
87.378267	0.853000
82.325350	1.097300
91.194017	0.581500
82.675850	1.053200
81.277400	1.144100
79.860600	1.126700
77.349883	1.230300
86.314617	0.662500
81.522550	0.933200
74.927350	1.317200
81.058483	0.979800
79.675783	0.987000
81.167633	0.831000
82.239000	0.778700
83.658433	0.686700
77.333917	1.026100
82.606550	0.687200
76.938633	0.996300
82.553900	0.624200
81.419250	0.642200
82.930183	0.555000
81.919983	0.592500
72.971917	0.962800
77.068833	0.686100
71.467617	1.006900
71.587133	1.000800
66.475033	1.217100
65.517417	1.229800
68.133117	0.989500
71.780450	0.744500
71.749817	0.747700
69.616300	0.837500
71.805650	0.674900
72.901217	0.575200
77.704183	0.248700
76.694117	0.285700
72.090317	0.528700
69.140800	0.692600
69.542583	0.513000
68.037883	0.584700
50.075083	1.588200
64.863917	0.732700
