#Y dist(nm)	Y force(pN)
0.000000	1.131900
4.657650	0.854700
2.233200	1.000800
8.624617	0.593900
10.500967	0.467300
-2.054733	1.064600
1.413050	0.622800
5.825683	0.344500
4.916850	0.370200
-0.319117	0.597700
-5.995383	0.844700
-9.409750	1.033500
-13.656000	1.284900
-8.534650	0.978600
4.399383	0.185500
-6.983250	0.867600
-8.758267	0.975700
-9.541667	0.985900
-0.070917	0.133600
-10.458567	0.732100
-8.731700	0.564600
-8.309400	0.506400
-8.304083	0.467300
-11.054933	0.617900
-11.555333	0.654200
-13.193567	0.746200
-4.704417	0.203500
-13.413467	0.712300
-13.662883	0.731300
-13.049783	0.673100
-20.463783	0.946100
-23.123883	0.989000
-28.500233	1.287800
-15.568333	0.487700
-13.866917	0.368800
-16.721450	0.526800
-12.320067	0.239500
-15.309200	0.400200
-16.000100	0.200400
-26.649683	0.746900
-21.756783	0.426800
-26.486667	0.685000
-31.123683	0.970100
-29.580150	0.868500
-25.356517	0.617200
-30.063400	0.883800
-30.049067	0.871300
-36.071717	1.149100
-27.792400	0.645000
-23.785017	0.376600
-27.333867	0.555700
-25.649950	0.357900
-27.015350	0.399600
-35.314300	0.815100
-33.154333	0.682100
-34.830633	0.757100
-38.029767	0.936100
-34.441833	0.666200
-28.673583	0.303800
-28.086333	0.233300
-34.231700	0.572700
-35.041583	0.605300
-33.811417	0.508900
-35.046483	0.596900
-34.981150	0.552000
-36.285633	0.521900
-36.086733	0.314300
-38.537550	0.424500
-40.179167	0.474700
-31.881683	-0.030700
-37.049250	0.259500
-41.399067	0.520900
-48.843233	0.951200
-41.469483	0.446600
-54.012017	0.926500
-50.955433	0.738500
-47.568983	0.541400
-48.158567	0.539200
-47.586583	0.369800
-39.318683	-0.188200
-51.448450	0.527700
-57.263667	0.864100
-56.603733	0.831200
-55.057550	0.739800
-45.766600	0.007500
-52.793867	0.340600
-63.549817	0.964900
-54.116900	0.431700
-56.297433	0.546200
-61.674567	0.839800
-49.891450	0.138000
-52.172233	0.251300
-56.693617	0.418600
-65.597500	0.782400
-56.844433	0.254000
-58.759050	0.329400
-55.839150	0.179100
-61.600617	0.520300
-61.215033	0.482900
-57.995183	0.284000
-61.411850	0.460500
-66.714417	0.653200
-68.771317	0.782200
-67.142267	0.655900
-61.910167	0.329800
-58.687800	-0.024000
-65.392550	0.339600
-71.392983	0.677300
-65.616233	0.317600
-70.233400	0.566100
-72.739567	0.701200
-70.346533	0.410600
-73.378283	0.521600
-70.104833	0.313700
-72.942733	0.433700
-73.558633	0.473900
-65.663650	-0.009300
-71.017050	0.242400
-67.209383	-0.022000
-73.590150	0.327000
-78.781917	0.612700
-75.613667	0.412900
-74.529267	0.309100
-73.760067	0.273100
-70.648217	0.040900
-78.533033	0.426200
-80.319050	0.318000
-77.134800	0.091800
-77.002867	0.065200
-77.686083	0.066800
-83.265067	0.355600
-81.379150	0.249900
-83.417933	0.336500
-87.331900	0.549000
-89.317900	0.396600
-87.438800	0.259500
-97.633033	0.853400
-99.831683	0.992900
-102.912400	1.184400
-98.155617	0.908800
-95.334700	0.715200
-91.200633	0.464300
-97.489117	0.531400
-100.731867	0.739900
-99.643917	0.657400
-98.079917	0.571300
-104.521000	0.827700
-101.818667	0.648100
-99.899367	0.533200
-99.366017	0.492700
-93.258900	0.046200
-97.170850	0.197700
-95.213000	0.055200
-99.925467	0.334000
-90.804633	-0.223900
-104.087317	0.550900
-99.507567	0.270100
-103.731083	0.491300
-105.018367	0.566800
-103.801133	0.493100
-103.889433	0.415400
-109.531533	0.509300
-111.181183	0.587900
-111.776917	0.625900
-115.216433	0.830600
-112.127500	0.644700
-110.661750	0.548700
-105.187483	0.224000
-106.543333	0.303200
-106.510483	0.140000
-110.133417	0.315100
-101.423350	-0.223200
-114.928017	0.566800
-109.540983	0.161600
-116.004900	0.533100
-112.655183	0.307400
-119.396617	0.682000
-109.492400	0.028200
-116.130667	0.323500
-118.254200	0.440400
-114.502517	0.181300
-118.948433	0.392000
-118.674900	0.340200
-117.126333	0.237800
-117.055417	0.210100
-116.439800	0.160800
-123.859017	0.582700
-124.059383	0.607400
-128.791300	0.893100
-130.683950	1.008000
-120.068667	0.376600
-121.590867	0.454900
-123.725283	0.585800
-129.915733	0.943100
-137.458100	1.181400
-134.210400	0.955500
-135.276400	1.011300
-125.547117	0.412300
-135.209567	0.915400
-132.537700	0.716400
-128.138167	0.397600
-130.207317	0.484000
-134.148633	0.698600
-133.233883	0.617900
-134.071533	0.507800
-135.148350	0.503700
-140.070667	0.758200
-133.814750	0.360900
-136.705933	0.506000
-130.644650	0.127200
-138.782500	0.576900
-138.371683	0.536900
-140.627783	0.605300
-142.355933	0.628400
-147.177817	0.906700
-140.911050	0.502500
-134.623533	0.103100
-146.135333	0.695900
-136.170167	0.037000
-149.899200	0.800400
-153.434300	1.006800
-146.293400	0.561000
-144.854417	0.459700
-155.571350	0.933900
-154.935250	0.861000
-146.374433	0.324800
-146.769917	0.329800
-151.051017	0.549700
-143.982400	0.129300
-158.668633	0.968000
-156.351550	0.815100
-157.835033	0.922100
-148.530700	0.336300
-147.759533	0.222800
-168.285933	1.444100
-160.310083	0.677600
-157.518217	0.365500
-160.328483	0.470300
-169.684633	0.989900
-160.054250	0.402900
-159.446283	0.358100
-158.123900	0.263700
-162.403433	0.476900
-158.955767	0.278200
-161.470967	0.408100
-163.227950	0.456000
-167.314417	0.623800
-162.111233	0.282200
-167.117517	0.550600
-174.516950	0.976200
-170.326067	0.696100
-163.386867	0.275800
-169.482900	0.633600
-169.969333	0.649400
-163.891133	0.047900
-168.137700	0.209400
-171.791917	0.408700
-166.975800	0.071700
-181.502733	0.894800
-167.621333	0.089000
-161.490917	-0.341900
-171.367300	0.250200
-175.613733	0.260600
-172.233583	-0.001600
-182.544667	0.539200
-169.568183	-0.256300
-186.972333	0.729800
-175.173167	0.012100
-177.408183	0.086900
-171.338783	-0.311800
-176.803767	-0.026600
-183.447483	0.320900
-183.705400	0.319800
-180.858917	0.126100
-175.546433	-0.224500
-185.440950	0.209700
-187.638917	0.329800
-189.759017	0.433300
-196.401983	0.797000
-176.905083	-0.457300
-189.020367	0.203500
-186.051000	-0.056100
-184.038750	-0.176100
-193.401983	0.364400
-191.558017	0.252100
-198.814950	0.534000
-195.348017	0.307300
-197.605983	0.415100
-192.880817	0.143200
-201.632783	0.605000
-192.605117	0.051400
-199.911183	0.464000
-207.293917	0.885700
-193.172450	0.046200
-196.068317	0.211300
-200.000650	0.375900
-208.932633	0.818600
-201.265433	0.338900
-197.733100	0.109800
-200.707817	0.260500
-207.399733	0.613700
-205.442317	0.504400
-206.452717	0.454000
-208.839483	0.573800
-205.060033	0.304700
-207.743933	0.443900
-207.737967	0.439000
-204.545767	0.244900
-208.171400	0.300900
-209.024600	0.350100
-212.554550	0.543300
-213.211617	0.564400
-214.546300	0.522900
-213.972650	0.460500
-223.589117	1.027000
-216.025617	0.555700
-213.428267	0.364000
-212.532917	0.340300
-215.437517	0.425800
-213.887917	0.285100
-215.478900	0.300600
-213.970783	0.194600
-218.137217	0.441100
-215.436717	0.266800
-220.489050	0.477300
-220.431167	0.368500
-224.588583	0.596900
-224.038883	0.531500
-214.797500	-0.044100
-226.923833	0.552500
-218.333467	-0.015500
-224.634783	0.303200
-223.033850	0.218400
-227.872633	0.473900
-224.405600	0.238200
-224.763517	0.136000
-227.723967	0.286300
-229.408583	0.325700
-235.684417	0.690100
-231.474250	0.421500
-228.021500	0.219300
-238.951583	0.728000
-229.590950	0.156300
-230.710167	0.206200
-230.481350	0.166200
-226.777533	-0.127900
-232.705900	0.100800
-235.720900	0.259500
-235.256917	0.168100
-243.002883	0.615800
-235.246050	0.148500
-235.415517	0.097900
-229.506900	-0.338700
-235.375183	-0.038500
-236.388100	-0.014700
-238.454283	0.098600
-243.591850	0.364800
-242.063583	0.261200
-241.301883	0.161600
-248.131100	0.533100
-252.901700	0.827700
-248.592833	0.568700
-232.493750	-0.453300
-240.695583	0.011900
-242.613217	0.061900
-246.806567	0.320500
-243.335667	0.105700
-245.866933	0.208100
-239.850883	-0.334600
-233.854533	-0.663700
-246.745917	0.061900
-244.405750	-0.102000
-253.812683	0.292700
-257.572883	0.542000
-247.982667	-0.060200
-253.092217	0.235000
-255.777817	0.346000
-247.620033	-0.157000
-244.357567	-0.376700
-249.356133	-0.089500
-248.273900	-0.174600
-250.442350	-0.186000
-257.488633	0.222800
-255.510500	0.076200
-260.351250	0.357300
-258.915367	0.132100
-252.179700	-0.283500
-259.590400	0.088200
-269.400467	0.683500
-265.299117	0.438100
-263.923183	0.320900
-262.066283	0.094100
-261.007683	-0.018700
-259.128583	-0.184600
-254.240517	-0.506000
-260.464233	-0.139000
-260.319533	-0.135700
-279.324267	0.866200
-272.612917	0.440200
-270.091133	0.282200
-273.478800	0.480900
-268.237850	0.079200
-268.782550	0.050100
-277.081833	0.525200
-271.203250	0.120900
-275.111533	0.360200
-268.140500	-0.068100
-269.760467	0.024700
-271.619367	0.052600
-270.054067	-0.043700
-286.568217	0.930700
-272.602917	0.087700
-271.613117	0.023500
-272.641917	0.061900
-270.825833	-0.216100
-271.928567	-0.172100
-271.275517	-0.269300
-276.970433	0.064700
-276.799133	-0.051400
-274.685683	-0.236200
-278.724883	-0.057700
-270.245583	-0.558400
-278.965733	-0.066100
-290.803750	0.635400
-291.078533	0.622700
-284.070933	0.161600
-280.745283	-0.022000
-280.004967	-0.111500
-279.801233	-0.142600
-281.729367	-0.121100
-285.355683	0.073100
-287.020083	0.089600
-287.865217	0.120400
-292.621067	0.375700
-296.650950	0.603000
-292.229250	0.226500
-292.661433	0.218600
-293.934233	0.211100
-291.925050	0.097800
-291.564250	0.046800
-288.933650	-0.116400
-291.198200	-0.084900
-296.961000	0.223500
-282.355767	-0.709100
-295.313350	0.039000
-301.877750	0.371400
-292.255350	-0.168900
-297.536717	0.091900
-300.558217	0.238300
-293.729000	-0.222000
-301.210517	0.190300
-296.790300	-0.098400
-288.081967	-0.612500
-301.620650	0.154800
-292.088017	-0.436700
-298.243767	-0.069200
-299.948650	-0.007800
-294.023350	-0.381300
-296.720050	-0.431100
-307.038383	0.149300
-303.050083	-0.086200
-299.914500	-0.281400
-302.760750	-0.104100
-300.640217	-0.246800
-292.344350	-0.784800
-306.075433	0.035000
-298.410750	-0.462600
-300.859567	-0.312200
-312.756567	0.601000
-303.561950	0.116100
-305.114267	0.256000
-302.583967	0.105100
-297.670017	-0.179300
-300.285467	-0.037100
-299.039033	-0.015400
-302.153033	0.214700
-301.837883	0.250700
-304.364483	0.381200
-300.969250	0.174300
-295.455533	-0.152500
-300.180383	0.194600
-294.972567	-0.062000
-297.261583	0.090200
-298.357800	0.172500
-297.349317	0.093400
-290.355883	-0.313900
-292.456967	-0.200300
-295.539200	0.119100
-287.532333	-0.375400
-286.189583	-0.467800
-284.590200	-0.589200
-291.540333	-0.120100
-299.052983	0.311900
-297.353217	0.203500
-290.712950	-0.150900
-284.524367	-0.521600
-287.701417	-0.359300
-290.852433	-0.132400
-293.934083	0.079400
-294.724433	0.211400
-300.040850	0.490200
-292.618317	0.065200
-294.720983	0.205100
-281.684167	-0.546500
-283.405167	-0.428900
-294.070600	0.208800
-296.900317	0.394300
-292.134667	0.200500
-290.858417	0.191500
-295.895250	0.517800
-286.405100	-0.010800
-288.124817	0.102400
-298.614433	0.713900
-289.949033	0.203900
-286.643983	0.059000
-284.268617	-0.092600
-276.730233	-0.508000
-288.388667	0.201100
-282.323667	-0.139100
-286.817000	0.115200
-286.392450	0.157800
-288.319167	0.273700
-276.843933	-0.376000
-275.464917	-0.461000
-286.815983	0.271100
-282.955933	0.057500
-278.442900	-0.156600
-284.615017	0.231700
-277.603617	-0.179300
-276.889767	-0.210200
-278.763783	-0.026500
-280.887317	0.136000
-281.246350	0.187800
-279.782933	0.110300
-279.772817	0.142600
-274.343517	-0.181400
-286.051167	0.560200
-277.684267	0.129100
-274.038783	-0.054100
-270.007017	-0.310100
-267.343367	-0.488000
-278.117700	0.219300
-278.641333	0.270200
-276.032967	0.166000
-274.336217	0.064300
-273.109667	-0.009200
-272.513583	-0.058300
-273.016617	0.133600
-272.764883	0.148100
-264.384983	-0.309400
-271.472117	0.138400
-269.952233	0.058400
-272.877167	0.225700
-266.700650	-0.056700
-264.663417	-0.147200
-273.584267	0.418600
-273.759167	0.419200
-275.392400	0.532500
-271.078633	0.281000
-266.965767	0.079900
-261.276250	-0.191100
-267.159933	0.162500
-263.813417	-0.048200
-264.045317	-0.016700
-263.136900	0.014100
-270.248483	0.486800
-265.070767	0.226600
-263.262617	0.108100
-263.850433	0.149300
-255.810717	-0.327800
-253.572350	-0.346500
-255.100500	-0.246900
-265.982117	0.399400
-264.074433	0.273800
-264.175383	0.292700
-263.444367	0.245800
-259.206100	0.156300
-251.544450	-0.352200
-252.439483	-0.357700
-258.036350	0.025800
-256.340633	-0.007600
-258.238067	0.178600
-264.778533	0.606200
-256.121683	0.097100
-260.409100	0.329100
-255.445450	0.025200
-254.267067	-0.037700
-249.308183	-0.262600
-248.191367	-0.356900
-252.788833	-0.059200
-263.457050	0.601500
-249.890500	-0.192900
-254.833350	0.057600
-256.689100	0.337500
-252.905383	0.110300
-245.287750	-0.350700
-260.737500	0.559500
-262.071933	0.790700
-261.173033	0.786500
-247.704133	0.024200
-244.982300	-0.160500
-245.018667	-0.204500
-250.481083	0.131000
-251.229500	0.278400
-257.780733	0.719900
-239.961083	-0.284200
-250.206750	0.340200
-250.218567	0.342400
-246.712533	0.109100
-247.457767	0.298000
-244.468833	0.134000
-247.864733	0.342200
-249.567800	0.435000
-249.003350	0.463500
-245.294567	0.319600
-243.218717	0.226300
-243.787667	0.235000
-239.358733	-0.003100
-237.535933	-0.118300
-239.668517	0.011200
-250.090067	0.743200
-243.339800	0.387900
-238.952583	0.144800
-239.329900	0.177300
-244.008850	0.461100
-243.581217	0.438100
-239.223083	0.284000
-244.439033	0.638300
-234.585267	0.047200
-235.870517	0.125500
-234.781017	0.124900
-230.912300	-0.054600
-211.766517	-1.196900
-223.537717	-0.497300
-231.828550	-0.009300
-227.504150	-0.290100
-235.291717	0.233500
-235.474683	0.307400
-229.007867	-0.071600
-236.467283	0.394400
-222.606500	-0.444900
-232.240300	0.138000
-235.766033	0.353000
-238.028950	0.614400
-226.271367	-0.098900
-225.771600	-0.124800
-232.834183	0.293600
-230.696317	0.236800
-230.428667	0.221200
-239.639017	0.803200
-230.314367	0.275200
-223.318200	-0.123900
-231.688900	0.373800
-224.033583	-0.033400
-223.904167	-0.006800
-239.099983	0.911600
-225.285600	0.131700
-221.576433	-0.106600
-224.497050	0.088500
-230.466617	0.511000
-226.045467	0.316600
-217.288667	-0.216800
-228.357517	0.458200
-214.980983	-0.328300
-216.777567	-0.118700
-227.094767	0.534700
-218.146183	0.030500
-217.963300	0.020700
-221.364733	0.222800
-224.565717	0.423100
-218.042900	0.155100
-213.331333	-0.108700
-220.079433	0.314900
-222.490300	0.455700
-217.016450	0.147000
-221.973017	0.435100
-216.588350	0.222600
-218.544900	0.370800
-220.265900	0.481500
-222.830283	0.666500
-215.212633	0.184100
-224.170750	0.730800
-219.633617	0.600400
-210.163750	0.058200
-217.379517	0.488800
-214.292967	0.299500
-216.316683	0.565400
-210.780100	0.244200
-209.089083	0.134600
-211.638667	0.277000
-209.163200	0.181800
-207.584450	0.174000
-215.425500	0.665100
-211.376483	0.431000
-209.985483	0.363500
-205.596867	0.068200
-201.152133	-0.199300
-209.081267	0.322900
-205.772317	0.135400
-210.417650	0.464700
-209.118617	0.376600
-210.301850	0.438600
-208.061250	0.349500
-200.454917	0.001600
-204.265367	0.246700
-199.008933	-0.018100
-200.562550	0.088500
-200.777700	0.101100
-190.971000	-0.512400
-204.225833	0.365300
-206.716517	0.559000
-198.196150	0.027000
-199.110600	0.098100
-196.990267	0.051400
-199.084250	0.187800
-210.168100	0.848700
-202.589717	0.462400
-206.024300	0.675600
-198.851067	0.268900
-199.335900	0.318900
-200.354450	0.482700
-197.455700	0.331200
-193.547833	0.117200
-194.611583	0.173600
-196.313100	0.273000
-197.628500	0.358800
-190.834883	-0.035800
-194.413517	0.176500
-194.191050	0.138000
-193.325417	0.135400
-188.023550	0.015000
-185.481317	-0.143000
-181.095417	-0.334100
-190.342600	0.214800
-190.142400	0.187800
-191.885000	0.265800
-185.610433	0.007400
-184.012617	-0.063200
-187.205767	0.205300
-187.923733	0.236900
-193.769500	0.574200
-188.297200	0.264300
-195.375167	0.784000
-189.579417	0.515200
-190.955150	0.598500
-187.315850	0.389700
-183.229033	0.167600
-187.189317	0.418600
-195.769950	0.920400
-191.815233	0.738500
-186.178850	0.399600
-175.419717	-0.230600
-182.064133	0.153200
-174.987167	-0.157100
-186.560400	0.556800
-184.403683	0.454400
-186.418250	0.556500
-181.552767	0.378400
-175.649733	0.059600
-178.876017	0.252100
-179.579267	0.267100
-180.055817	0.277000
-184.546633	0.575900
-178.292700	0.206700
-182.742667	0.463600
-185.718817	0.792700
-175.189500	0.322500
-181.767933	0.711500
-176.093600	0.393000
-176.252583	0.408800
-173.809633	0.265700
-174.525400	0.336300
-173.521833	0.424100
-177.809550	0.701100
-169.959450	0.219300
-177.085983	0.646400
-169.321717	0.184000
-174.251750	0.466200
-170.991900	0.250200
-171.236883	0.291800
-160.961683	-0.009400
-169.377583	0.458600
-168.844533	0.430400
-173.691533	0.725000
-164.210733	0.264500
-172.075183	0.763400
-164.060817	0.327700
-162.578517	0.244300
-169.656567	0.670300
-161.995900	0.216000
-162.800517	0.360100
-161.356617	0.280900
-157.127683	0.021500
-158.064600	0.067800
-165.170500	0.483600
-166.186433	0.564200
-172.076900	0.907800
-165.875350	0.564300
-175.407983	1.225400
-163.162533	0.690800
-164.230767	0.762100
-161.395850	0.588000
-162.245750	0.662700
-159.876017	0.514000
-160.724083	0.571100
-161.484467	0.624700
-158.467267	0.448300
-160.330883	0.826400
-158.765650	0.740700
-156.508683	0.596900
-154.017000	0.441300
-152.749000	0.416100
-149.741033	0.248300
-154.535783	0.527000
-153.180683	0.416000
-157.306100	0.679500
-158.672833	0.769100
-153.757133	0.638900
-151.666467	0.526600
-148.625833	0.343700
-155.887317	0.779200
-150.300000	0.463200
-153.677000	0.655500
-150.128117	0.437800
-151.135167	0.477400
-149.452783	0.458300
-152.794850	0.862500
-146.371900	0.483900
-142.907267	0.289600
-142.437183	0.248300
-139.022750	0.029700
-148.554233	0.617000
-142.104050	0.238200
-152.587450	0.867900
-137.470300	0.258900
-141.373817	0.486100
-145.267950	0.707100
-143.370267	0.599200
-144.356417	0.774400
-138.483767	0.463000
-148.858367	1.052200
-140.500350	0.559500
-139.454233	0.505700
-138.590817	0.449500
-138.625567	0.585700
-136.444100	0.533400
-137.216417	0.562000
-139.549517	0.712300
-139.962233	0.728000
-142.461683	0.880700
-136.158567	0.530500
-138.435517	0.684700
-129.037050	0.192600
-133.011967	0.574000
-132.161900	0.544500
-132.423033	0.539900
-129.444550	0.341100
-134.611467	0.643600
-134.219850	0.639600
-133.949300	0.626400
-137.294450	0.832200
-131.772583	0.679700
-130.158367	0.594700
-133.335467	0.847000
-130.609700	0.686100
-126.793900	0.561600
-124.613667	0.448000
-113.348167	-0.242300
-131.908567	0.863500
-138.741000	1.297500
-138.041717	1.262800
-127.793083	0.761300
-122.520500	0.512400
-122.484400	0.525000
-128.271317	0.881500
-132.193817	1.117900
-132.628967	1.150900
-120.845650	0.471000
-116.202767	0.186700
-124.649400	0.707100
-122.782117	0.687400
-119.686083	0.491300
-115.410300	0.243300
-118.604317	0.439600
-124.016683	0.755600
-117.446317	0.364000
-117.949700	0.400800
-118.285817	0.478000
-108.927367	0.135400
-117.633767	0.647500
-118.715967	0.723400
-113.978833	0.449300
-117.051500	0.774600
-111.424433	0.441800
-106.314633	0.151100
-119.853200	0.964800
-116.977000	0.802200
-117.709867	0.837100
-118.756000	1.050600
-110.149850	0.574800
-115.759000	0.918600
-109.969967	0.592300
-95.242817	-0.302600
-105.855050	0.364800
-109.886433	0.567500
-116.484617	0.965200
-121.603583	1.530500
-108.829100	0.804900
-109.072350	0.838200
-105.316550	0.608700
-102.790400	0.474000
-104.945483	0.621800
-108.580500	0.853200
-102.804200	0.513000
-104.736183	0.643700
-102.913317	0.540400
-107.857483	0.825800
-100.288733	0.521000
-106.194200	0.902400
-97.667900	0.404400
-99.773050	0.529500
-96.057283	0.332600
-101.657600	0.654600
-103.490983	0.776600
-96.614033	0.368600
-98.291533	0.759500
-101.751067	0.975100
-104.702350	1.152900
-101.343917	0.966400
-102.484633	1.113200
-103.878883	1.214000
-103.247450	1.186800
-91.340583	0.477200
-89.537100	0.371400
-93.915967	0.625300
-95.477417	0.720700
-100.099250	1.007100
-86.100667	0.289000
-94.504533	0.964100
-89.542467	0.697300
-90.168983	0.715400
-88.023083	0.612200
-82.342133	0.389900
-80.205817	0.277000
-84.536883	0.535700
-89.667650	0.819000
-93.038633	1.028900
-78.965783	0.214400
-88.559317	0.787000
-82.200467	0.403600
-92.607883	1.013000
-88.091250	0.740700
-88.860450	0.918600
-88.532817	0.931300
-86.828567	0.820300
-83.709483	0.656900
-85.873683	0.903200
-81.265050	0.675300
-84.484583	0.883100
-80.647650	0.656400
-89.627867	1.189600
-89.696150	1.207800
-82.987783	0.822500
-80.587967	0.678100
-79.619833	0.779300
-79.499900	0.915900
-76.117617	0.720700
-79.116183	0.897800
-80.021533	0.982400
-75.629983	0.844400
-67.421650	0.366900
-73.273667	0.714400
-64.903833	0.212000
-75.091400	0.796200
-74.439983	0.771800
-80.612733	1.116200
-75.949500	0.871800
-84.552750	1.387500
-83.032600	1.321500
-73.235200	1.052700
-70.924183	0.935900
-69.579917	0.878800
-68.970300	0.836700
-68.142200	0.827700
-63.961683	0.594800
-71.711617	1.081900
-70.982083	1.042400
-82.318617	1.677400
-65.600117	0.718600
-75.045183	1.306700
-65.195617	0.724900
-61.452500	0.640200
-56.479367	0.487600
-66.702533	1.077500
-58.001417	0.549400
-61.470333	0.762500
-54.680267	0.397000
-61.180133	0.800300
-62.765033	0.911000
-65.892700	1.111800
-56.149800	0.513000
-57.462067	0.574300
-62.330733	0.856100
-61.832633	0.821600
-60.358550	0.741300
-62.374617	0.885400
-58.799767	0.797200
-66.171667	1.250500
-59.637250	0.905700
-64.983300	1.236000
-53.867433	0.737600
-51.966200	0.653400
-52.319950	0.669000
-59.221950	1.081200
-55.114800	0.869700
-61.381117	1.251400
-60.460117	1.204000
-59.982183	1.181300
-58.125717	1.312300
-57.240117	1.356100
-53.372950	1.149900
-59.166117	1.515100
-52.993317	1.130200
-42.715017	0.520000
-46.285500	0.731700
-48.443117	0.867400
-50.289400	1.039200
-47.520417	1.099000
-45.138833	0.971300
-50.397217	1.288600
-43.909883	0.950600
-46.931283	1.197500
-47.206633	1.241300
-37.035950	0.662700
-40.128967	0.834400
-38.889150	0.766500
-30.405600	0.258600
-37.388750	0.753300
-40.848033	0.964100
-36.636583	0.688400
-39.688250	0.876900
-37.895583	0.893000
-27.152933	0.270200
-26.296017	0.215800
-36.775000	0.857100
-38.498867	0.970000
-37.834550	0.927000
-34.396067	0.927400
-28.882417	0.601900
-31.140883	0.740600
-32.740183	0.831800
-32.873317	0.928600
-36.197083	1.194200
-33.447767	1.027000
-30.304483	0.850100
-35.058433	1.093400
-41.447517	1.489900
-37.406817	1.263400
-29.257983	0.780500
-29.555917	0.853600
-21.361467	0.447100
-33.493367	1.173100
-30.312017	0.995500
-37.347600	1.461900
-26.276617	0.935200
-25.513733	0.899600
-24.173800	0.807600
-27.559950	1.029600
-30.037750	1.202100
-25.936667	0.967600
-19.092767	0.714400
-27.621000	1.260000
-17.738717	0.693100
-20.817250	0.865200
-15.081450	0.546000
-20.743183	0.850100
-23.349883	1.000100
-23.307400	1.033800
-20.742717	1.098700
-8.394583	0.413900
-14.971450	0.809100
-17.674617	0.971500
-23.202700	1.347000
-15.621917	0.862900
-13.341800	0.705600
-10.142400	0.537600
-17.371833	1.106900
-22.103167	1.543000
-17.474500	1.291500
-16.565617	1.240300
-10.589383	0.873200
-9.642200	0.787800
-11.737417	0.944800
-14.164833	1.270100
-16.041733	1.406600
-10.042867	1.010800
-10.574467	1.063300
-14.223550	1.304400
-4.020383	0.696200
-8.554367	1.138900
-0.208650	0.658200
-7.655517	1.088800
1.264483	0.551500
-2.154033	0.866000
-6.401567	1.149700
-8.739983	1.287500
-2.288533	0.900500
2.186450	0.633600
-2.711850	0.927900
-5.884817	1.174600
-7.030383	1.272200
-7.069383	1.290800
-1.824983	0.978800
-1.650667	0.995500
-2.740533	1.096700
1.850150	0.836700
0.607283	0.897400
2.710933	0.815500
-7.142867	1.482700
-5.259867	1.403800
6.009750	0.721200
7.168800	0.666300
10.234217	0.638000
7.383467	0.787400
16.369700	0.290700
14.801433	0.376600
8.634767	0.793100
8.736167	0.789200
7.024700	0.903900
5.804817	1.000400
0.256450	1.386000
7.315733	0.956200
14.648400	0.546000
5.867083	1.073800
7.867133	0.994900
11.056650	0.834000
2.922883	1.402000
7.237783	1.178200
6.588417	1.257800
7.228300	1.196100
11.100617	1.042700
22.588733	0.471700
17.305700	0.797100
22.178433	0.528400
17.689783	0.779800
18.452050	0.739200
14.451200	0.999600
21.770733	0.694300
21.946533	0.694600
10.839683	1.371700
16.740050	1.009500
12.379733	1.415800
19.726033	1.010500
13.386017	1.430900
18.330867	1.156400
16.583100	1.275000
18.931667	1.137500
35.320167	0.303200
34.058033	0.376000
15.460550	1.455300
21.179067	1.137200
15.948333	1.563400
19.645800	1.407900
27.831583	0.977200
16.359400	1.644000
35.857400	0.481500
36.277783	0.462400
19.184267	1.533500
29.368600	1.011900
31.814517	0.910100
35.602533	0.698500
26.482950	1.227900
31.174650	0.962100
26.484367	1.286300
27.675150	1.335300
30.005417	1.208300
29.237900	1.275300
22.945833	1.671700
34.410717	1.118300
42.768067	0.619400
40.911767	0.746900
42.670483	0.655900
46.093517	0.461600
41.839833	0.680800
43.381850	0.648600
37.383750	1.013700
52.033517	0.180800
40.788950	0.828900
37.599967	1.038200
31.179833	1.443100
39.750317	1.103900
40.302817	1.052600
31.978317	1.551500
33.039133	1.505800
44.938317	0.802700
36.475050	1.372500
32.857683	1.627600
41.403767	1.156400
38.235317	1.358900
46.544983	0.857200
44.404467	1.047200
41.116917	1.344500
47.137117	0.990800
41.617533	1.394200
41.167133	1.411900
44.440150	1.269300
42.937733	1.349200
51.160933	0.902500
52.058883	0.836200
46.401683	1.219300
49.362450	1.045500
49.630250	1.021200
53.570783	0.779200
56.282467	0.791000
60.552283	0.557800
49.814950	1.180200
47.873500	1.303200
46.131900	1.529100
51.429567	1.270700
55.881583	1.016500
55.627550	1.066800
52.470783	1.263700
48.170200	1.521300
41.872833	2.002600
46.708733	1.769200
51.425450	1.503600
54.148133	1.360600
49.826950	1.645200
49.878833	1.681300
52.747050	1.537800
56.748867	1.351400
59.492350	1.175400
64.764433	0.872500
62.279700	1.033500
58.316367	1.402700
56.661050	1.527900
59.815550	1.403100
62.105667	1.275500
63.628350	1.206000
57.798650	1.527000
62.292900	1.376700
59.227033	1.558900
59.656550	1.558500
59.055617	1.583000
64.004067	1.348700
65.350217	1.278800
64.584033	1.383700
62.201917	1.551500
65.146083	1.405600
65.379033	1.432600
69.796433	1.193500
62.507400	1.626300
68.718750	1.264200
65.331517	1.451900
69.371283	1.241200
71.015400	1.269900
63.308167	1.754600
75.082850	1.141800
70.696267	1.398200
81.398933	0.792700
77.559767	1.000100
67.332800	1.618800
60.573000	2.034000
71.271300	1.526100
70.718083	1.568500
86.482450	0.654600
82.592400	0.885000
78.490017	1.212800
73.735233	1.514800
72.835017	1.672100
80.912133	1.185400
79.466617	1.251500
88.209600	0.750300
81.641767	1.185200
85.887433	0.952900
87.102450	0.919500
90.740650	0.709500
88.940500	0.817200
88.659633	0.844300
88.568500	0.857400
82.521667	1.261100
82.033483	1.320100
86.616617	1.071800
84.214767	1.236800
82.565133	1.471300
76.395367	1.876700
80.820567	1.683800
89.265617	1.197500
88.463683	1.262200
85.335733	1.479700
86.731233	1.524100
85.765717	1.584500
98.334400	0.869700
91.791917	1.251500
95.683633	1.028500
92.781717	1.217900
93.710233	1.276300
82.498933	2.003200
89.668950	1.638900
92.981883	1.428700
96.792700	1.207800
100.227817	1.017800
102.974367	0.943100
104.301000	0.902400
101.311133	1.054300
89.830967	1.745900
95.657450	1.477200
100.358883	1.281400
94.854733	1.635400
100.395767	1.363400
94.606950	1.711500
107.160700	0.972900
103.889017	1.165100
108.662267	1.006700
99.981183	1.534300
104.335800	1.335900
100.073967	1.572500
107.264767	1.175000
114.048750	0.753000
101.443867	1.521200
109.809750	1.012500
101.671467	1.522400
109.090233	1.073800
101.222633	1.586800
103.005900	1.512300
109.798700	1.163400
109.265917	1.216400
114.207417	0.890600
112.378750	1.034400
102.790400	1.681200
111.822183	1.241500
114.801567	1.054100
112.908033	1.211500
114.561633	1.111600
109.582217	1.411100
113.574267	1.236800
115.476800	1.250100
110.010317	1.572500
109.493050	1.608000
109.293617	1.667600
109.011917	1.781600
112.255467	1.632200
117.880133	1.341700
117.684983	1.344100
122.444017	1.055300
118.378933	1.304200
117.875550	1.446600
110.196800	1.932600
117.100183	1.612900
112.283800	1.928400
120.665700	1.424400
122.440767	1.302500
119.956950	1.628400
123.374467	1.421000
119.571533	1.656400
118.668367	1.702700
123.686700	1.500600
128.688283	1.259800
127.545217	1.327400
121.909067	1.718600
126.977783	1.417900
129.449633	1.280200
126.107550	1.505700
125.194283	1.675600
130.801600	1.346100
122.771783	1.902400
123.165400	1.896300
132.697050	1.305000
132.931617	1.278800
129.824600	1.611000
134.954683	1.333300
131.262917	1.533200
129.438867	1.654400
133.445633	1.548400
137.908600	1.301100
147.560600	0.775200
133.386800	1.600200
139.080367	1.247300
133.076967	1.601300
137.163100	1.479600
144.397083	1.089400
133.899967	1.756100
141.167500	1.326900
140.370667	1.378400
137.624483	1.539700
141.673017	1.393400
135.253300	1.836600
129.136517	2.222900
130.058083	2.190700
140.965450	1.582200
147.402283	1.242100
137.581600	1.822500
146.639317	1.340000
148.087200	1.265700
146.422800	1.354800
156.753317	0.732500
143.617633	1.645900
144.272450	1.627200
150.322617	1.289300
148.044783	1.398400
140.417717	1.865600
142.299150	1.751400
141.928033	1.797400
144.718033	1.624900
148.118683	1.597000
154.426600	1.263300
150.213400	1.488600
149.683117	1.532900
160.072917	0.890600
150.267967	1.475000
154.714567	1.283600
150.828033	1.555000
152.387083	1.460800
159.310367	1.072100
159.553800	1.085400
157.859283	1.186600
151.409817	1.580900
157.099700	1.251300
157.020883	1.271800
159.891250	1.098900
158.509167	1.226300
166.360817	0.986000
160.130733	1.396300
160.399717	1.357400
162.599550	1.235100
166.430733	1.164400
154.803750	1.870200
159.985900	1.577400
154.148617	1.936400
170.766033	1.080100
162.302283	1.614400
165.394250	1.445100
160.934450	1.718100
164.891717	1.509500
157.209867	1.962500
163.313767	1.606100
160.893200	1.751400
162.568483	1.666900
168.720883	1.318000
172.512300	1.212600
169.108217	1.550900
170.286167	1.508000
169.533967	1.562000
168.533067	1.634600
175.221800	1.239600
168.068700	1.750800
169.688817	1.897700
175.837433	1.549300
179.870183	1.308100
175.934217	1.541000
184.011700	1.179600
178.995033	1.492300
185.868617	1.115600
173.695433	1.818700
181.285017	1.382300
184.353383	1.189900
176.967367	1.682900
181.366617	1.434800
184.109883	1.267000
183.013467	1.344500
183.097083	1.346500
186.149917	1.153400
181.033900	1.436100
178.495033	1.611400
176.289333	1.762900
176.469900	1.755000
182.410883	1.596700
187.095717	1.476800
186.787850	1.478100
188.902133	1.375600
193.016283	1.138600
194.264183	1.050100
192.320917	1.215800
188.035483	1.605400
185.254683	1.791400
189.116700	1.588500
193.011267	1.348700
201.547317	0.985700
195.609467	1.353500
192.648050	1.537200
193.937417	1.451000
188.474517	1.794500
196.120317	1.361300
206.287017	0.890600
198.513850	1.387200
206.502200	0.924600
209.320417	0.742400
195.774450	1.558500
197.634550	1.446600
193.454767	1.706600
200.963517	1.272200
200.629667	1.536800
197.572633	1.773100
199.240900	1.725000
201.770117	1.568600
199.889717	1.678100
211.005917	1.034600
205.254233	1.355200
192.971683	2.120200
195.270850	2.118000
198.208167	2.137400
204.306933	1.787500
202.102300	1.920000
194.422450	2.443200
207.807033	1.754500
214.659317	1.364000
203.851617	2.018300
207.239633	1.810000
204.308217	1.997600
205.883483	1.911400
210.755417	1.675400
207.372833	1.907500
209.520283	1.764400
217.603983	1.284400
208.790883	1.810300
219.274067	1.169300
220.393683	1.096000
216.943150	1.291500
224.020767	1.124900
224.218917	1.115900
221.603800	1.276800
220.144050	1.337100
214.612600	1.759800
208.882050	2.178900
217.236900	1.740300
229.627450	0.990300
220.788183	1.505500
217.980667	1.670000
225.533200	1.425600
220.194033	1.757800
219.202850	1.829100
217.932300	1.911300
221.128100	1.729800
233.325450	1.131900
223.532867	1.728500
215.100783	2.239900
224.487433	1.668400
224.965950	1.630200
221.512033	1.841500
219.380017	2.143400
217.338450	2.264100
227.010000	1.725900
234.042633	1.281700
234.753933	1.396600
232.137000	1.580100
234.614550	1.425600
234.284233	1.460800
237.659550	1.223700
229.618683	1.717600
235.007367	1.518500
226.094950	2.114700
232.078100	1.767300
228.583767	1.969100
229.510283	1.928200
233.550300	1.686600
233.139750	1.710300
226.284283	2.106400
235.097600	1.722600
246.966033	1.155700
238.866133	1.641100
242.633800	1.442400
250.064267	1.033100
243.381300	1.536300
242.742817	1.591700
244.710833	1.479100
246.585933	1.367200
248.994833	1.219300
246.203583	1.386100
243.476367	1.720700
240.478567	1.931000
247.322150	1.537500
245.627317	1.623200
239.108683	2.028100
245.735967	1.616900
248.126833	1.492600
244.881683	1.660600
246.262617	1.694300
251.925050	1.417200
254.069983	1.302700
253.017000	1.358400
253.313183	1.370800
253.000933	1.383700
253.565633	1.344700
243.878950	1.944900
248.802100	1.753800
253.714217	1.676000
256.273067	1.551500
250.644133	1.884700
250.927600	1.909800
256.195467	1.723700
253.500967	1.885400
252.186500	1.974300
258.344333	1.630900
266.598217	1.121900
260.471367	1.489400
259.952283	1.700200
258.153283	1.853500
251.578000	2.255400
258.506767	1.862300
260.904367	1.745600
252.848017	2.239700
274.584533	0.977200
259.672567	1.854500
267.077933	1.507600
263.838900	1.743000
271.653783	1.335400
265.589950	1.704300
267.056350	1.645200
267.119217	1.653800
266.185950	1.815900
267.308600	1.832100
266.889433	1.855000
275.826000	1.338600
264.162250	2.044500
262.786867	2.127800
264.815617	2.033000
267.260933	1.915300
267.153683	1.999600
271.169717	1.984400
274.856517	1.776200
274.079133	1.833700
273.822050	1.844400
274.131583	1.827400
271.873883	1.963900
275.066733	1.802200
274.705200	1.843500
286.987733	1.373200
275.711983	2.045200
278.925267	1.866200
281.823700	1.686300
283.674550	1.633500
287.785833	1.409200
285.024850	1.579500
282.282633	1.756600
281.647333	1.771000
281.455917	1.799600
283.561233	1.787500
280.207367	2.080100
279.790433	2.119900
284.024567	1.887800
279.190200	2.198100
290.953233	1.484800
288.686683	1.612300
282.444433	1.983700
283.401350	2.013900
292.457933	1.681900
290.723400	1.793700
284.647650	2.168700
283.988350	2.228100
289.297433	2.073700
298.440267	1.533800
295.065867	1.725200
298.987167	1.483700
294.920700	1.761300
291.975817	1.910000
304.384583	1.189600
298.014300	1.578300
299.312317	1.805900
304.590333	1.458400
294.949150	2.043300
302.852717	1.580600
301.283167	1.742600
300.846683	1.830100
301.650783	1.804600
300.426533	1.900300
294.557450	2.259600
290.492533	2.511700
296.984583	2.142400
302.536367	1.821500
306.214650	1.648500
303.168000	1.795200
301.328117	1.923200
300.691567	2.092700
304.557600	1.887900
309.788767	1.592900
306.284100	1.816800
307.418017	1.811300
306.801883	1.856500
309.740783	1.689100
305.240700	1.962900
308.396283	1.789300
307.160300	1.869000
304.103950	2.055000
306.579067	1.910600
301.797550	2.489100
308.304350	2.238600
307.453883	2.283400
311.947850	2.014200
309.877767	2.180900
309.187317	2.231600
310.455917	2.138900
313.485900	1.965300
318.909067	1.711700
320.249467	1.870400
319.880883	1.903600
312.045833	2.387200
317.910083	2.053300
316.884717	2.268500
324.008333	1.858000
324.571283	1.823200
330.665067	1.454300
317.264067	2.266700
316.629883	2.296300
318.917467	2.229200
327.999767	1.723100
312.415100	2.684400
317.877100	2.366700
329.651733	1.695700
332.121550	1.564200
330.193967	1.682000
325.084617	1.971800
331.201567	1.834700
335.005100	1.649400
329.735550	1.958700
332.856600	1.760100
336.046917	1.593500
326.955450	2.128500
335.000483	1.648300
331.340483	1.850200
333.774567	1.764200
338.322083	1.708900
331.139283	2.144800
336.340300	1.826700
327.916617	2.331500
332.598800	2.104500
338.665217	1.748000
338.072533	1.774900
341.760267	1.583000
336.621683	2.014000
325.693450	2.687400
343.752733	1.613800
340.593817	1.824200
346.140933	1.662400
345.853583	1.684600
342.356933	1.885900
340.619383	2.028400
340.128183	2.215900
347.050700	1.854600
343.733983	2.052400
346.499033	1.889200
349.273467	1.735100
342.902017	2.114300
342.373800	2.145900
336.601783	2.512300
340.980733	2.277100
348.628417	1.805900
348.171500	1.900500
344.989117	2.161700
351.054133	1.828300
348.007800	2.010600
345.489867	2.210900
347.820000	2.208900
357.093267	1.688600
360.238200	1.506900
352.934883	1.957600
349.691383	2.285200
344.764600	2.595300
346.021350	2.554200
345.317983	2.605300
359.472583	1.780300
360.126133	1.760500
356.271683	2.011900
352.603250	2.204100
354.966083	2.083000
348.063817	2.524100
375.613067	1.245800
369.226833	1.610500
368.639833	1.666900
366.292000	1.811700
355.945083	2.582500
364.193767	2.089100
364.198600	2.076000
368.183767	1.852400
370.208383	1.818700
369.019750	1.920600
361.205350	2.386200
368.216250	1.977900
359.708517	2.469800
369.392283	1.902100
374.138650	1.587300
368.259083	1.932100
361.298150	2.350200
360.769883	2.381500
363.795817	2.219600
369.396533	2.187100
372.006217	2.070800
370.273633	2.171500
370.321733	2.160700
365.553950	2.477100
372.222267	2.084300
372.609783	2.113000
374.249450	2.039700
373.624350	2.083500
370.512983	2.284300
368.613450	2.408700
369.653233	2.379700
372.457667	2.371100
376.635717	2.210300
373.218633	2.410900
368.988500	2.681100
366.889617	2.778800
372.098750	2.506800
377.193933	2.204500
377.975650	2.166300
377.250400	2.319000
386.726617	1.978100
385.012317	2.066300
380.183167	2.364500
381.551317	2.309600
384.430383	2.135200
386.076600	2.032500
386.005183	2.176000
386.873367	2.149400
382.314117	2.424800
385.251367	2.241200
381.980450	2.443200
383.251400	2.372400
384.156333	2.309500
386.311783	2.193400
383.659700	2.666400
392.314633	2.233900
384.818767	2.700500
381.439833	2.896900
385.418833	2.632000
393.672450	2.169300
394.964367	2.113400
389.042067	2.464100
398.045733	2.254300
391.803233	2.614300
396.051067	2.385500
400.713000	2.074800
405.829483	1.929100
401.156633	2.215900
399.675500	2.318100
396.258200	2.508600
393.522850	2.729400
408.345967	1.955000
404.487717	2.192900
401.486750	2.379000
404.098783	2.242300
401.544517	2.423300
398.833883	2.577400
399.094917	2.582000
408.465517	2.027900
403.296617	2.453600
404.781217	2.407100
404.538650	2.390700
400.745000	2.633100
403.099033	2.504800
405.282833	2.395000
398.092783	2.921500
409.210650	2.366400
413.423000	2.135700
415.362183	2.014300
422.973850	1.568100
411.183833	2.253700
412.560783	2.197000
408.610367	2.423300
412.634400	2.268300
416.887567	2.224400
419.237583	2.084200
413.440783	2.426800
417.087017	2.214500
426.262767	1.799600
420.891250	2.144700
431.487300	1.488600
427.478233	1.708900
418.065033	2.285800
415.865083	2.419600
422.873833	2.167300
416.901567	2.560400
421.001067	2.315300
422.907317	2.227400
423.460683	2.194900
419.689600	2.418300
414.818500	2.740800
419.151667	2.506700
414.128033	2.955700
426.378950	2.376300
425.337933	2.454400
428.112483	2.296300
430.980433	2.112700
430.547900	2.128500
431.778833	2.064700
433.141167	1.977200
424.896433	2.530300
433.980950	2.052900
425.418200	2.592300
426.500817	2.548700
423.881233	2.731600
430.303733	2.494000
430.933283	2.481100
438.023417	2.074700
430.524733	2.540800
442.792417	1.942700
437.832400	2.260500
438.769983	2.228800
437.882367	2.294900
433.594050	2.557200
434.842200	2.490900
427.482483	2.924200
427.066717	2.968400
441.868117	2.089700
430.940733	2.743000
431.305733	3.097000
442.475167	2.453600
445.275467	2.303300
441.539233	2.539000
441.929533	2.622100
445.147283	2.508700
452.583917	2.066300
448.350300	2.309400
451.437900	2.137200
445.517300	2.489700
450.799650	2.171100
449.658500	2.235600
443.640133	2.668300
439.995400	3.140700
449.501917	2.565500
443.092167	2.973200
443.924750	2.927400
456.452150	2.331300
456.730283	2.318200
456.904600	2.288100
454.972267	2.430200
456.967567	2.312000
457.962717	2.241200
463.791017	1.897700
462.471517	1.959500
459.016667	2.162000
449.784667	2.720000
455.781783	2.731600
461.721617	2.378600
463.742633	2.281600
457.940683	2.612200
452.183950	3.012600
461.530567	2.493500
456.859250	2.767500
456.322950	2.811000
454.670750	2.922900
454.610950	2.942100
440.695833	3.768400
449.628533	3.251500
460.002133	2.734300
464.451400	2.683200
457.046617	3.125000
466.485700	2.581500
469.626150	2.396700
468.561200	2.498100
462.362633	2.874100
469.940483	2.427700
472.534767	2.261600
465.998900	2.654100
468.546067	2.516600
468.067400	2.538600
473.963650	2.198700
467.655050	2.552100
466.823750	2.610300
470.664333	2.582500
467.520867	2.790800
460.999733	3.219400
474.156267	2.471900
475.964333	2.450800
475.588183	2.482000
468.798850	2.889300
470.323667	2.831300
479.019033	2.342500
480.116717	2.274200
478.636733	2.364100
477.550983	2.459200
476.997433	2.660500
472.640017	3.059000
478.919750	2.714100
484.351150	2.401200
487.356317	2.261600
482.896167	2.627000
490.765550	2.184900
484.830683	2.552500
484.068033	2.620600
490.587633	2.236900
485.826383	2.513800
491.132567	2.207900
481.391767	2.792000
492.959700	2.202600
489.035917	2.470700
480.043483	3.016600
487.356633	2.604700
476.611417	3.298100
483.979967	2.887400
490.536450	2.702400
495.431933	2.447500
483.724183	3.165700
489.455250	2.818500
498.896850	2.262000
493.357133	2.614900
491.210933	2.754100
494.928383	2.546800
492.017300	2.884500
495.181500	2.814000
497.939067	2.677400
495.970933	2.807200
495.815183	2.832700
509.056867	2.033300
501.107750	2.494800
505.978483	2.220100
498.284933	2.690500
497.531800	3.035400
496.929067	3.075200
504.820033	2.628700
509.909617	2.347100
496.631483	3.265300
502.717150	2.920500
510.434167	2.484500
514.633883	2.220100
498.215417	3.307100
511.544017	2.550200
509.576733	2.671300
507.331017	2.789300
508.843550	2.718300
504.616600	2.986500
504.664167	2.992100
498.908333	3.351400
498.373400	3.408900
502.986617	3.142700
504.383600	3.151800
506.744433	3.282400
514.370450	2.839200
512.927833	2.947300
515.555367	2.809400
514.310167	2.871500
513.637750	2.922900
513.781667	2.935100
512.012767	3.098000
516.136167	3.093500
515.972233	3.127300
506.670067	3.687800
522.578133	2.772700
527.195467	2.654300
522.620333	2.928100
523.070467	2.918300
533.607417	2.283800
523.596850	2.976000
527.906783	2.758600
532.526133	2.488600
522.970167	3.036200
522.608233	3.053200
533.122467	2.433200
528.808317	2.814800
529.646467	2.817500
528.061517	2.929400
524.478783	3.153400
528.510483	2.931400
522.352383	3.300100
524.649683	3.176800
534.863717	2.548100
529.149383	2.995900
530.467250	3.075300
538.288283	2.620600
532.966467	2.927000
527.588483	3.235600
532.535483	2.962900
535.070183	2.807500
536.966733	2.688100
533.937933	2.854000
533.437850	3.161700
539.515917	2.864600
545.195133	2.525800
539.413817	2.859500
547.405100	2.409600
541.033450	2.780100
540.801267	2.801900
535.889933	3.077200
547.682000	2.663400
541.751383	3.008500
547.953383	2.650300
543.628383	2.904700
548.784733	2.642500
540.823317	3.150800
541.971133	3.089500
545.693300	2.899500
540.985167	3.182300
541.306567	3.170300
540.050850	3.327600
539.893717	3.450200
543.346083	3.258400
547.513333	3.022000
548.721083	2.960200
565.523967	1.949300
560.008733	2.264800
550.573200	2.816400
547.922933	3.004000
557.225450	2.806200
555.845933	2.924200
562.631467	2.506100
554.235283	3.004000
566.465833	2.289700
558.132433	2.776000
559.868983	2.679700
558.285467	2.771600
561.790850	2.687400
557.342950	2.985600
557.123867	3.017600
563.596933	2.641000
560.671433	2.952700
558.779700	3.095700
562.162717	2.901200
566.687767	2.648900
556.062650	3.292800
566.411983	2.669200
566.983083	2.788600
563.851650	3.020700
561.758617	3.173000
570.384683	2.670700
564.541567	3.012800
571.150300	2.627400
563.736967	3.085100
564.133617	3.065000
568.335817	2.911400
571.545300	2.933100
569.522750	3.081300
565.781917	3.302000
574.375483	2.788600
568.929250	3.139500
569.115417	3.156500
571.583117	3.029000
575.043800	2.841000
568.785483	3.506500
574.319783	3.208900
581.240217	2.789300
582.839850	2.700600
583.323550	2.703600
572.735483	3.342700
579.540067	2.943200
579.392000	2.958000
592.575817	2.189300
583.665267	2.707100
572.533917	3.536900
579.997000	3.176100
574.008000	3.564300
578.444067	3.309500
577.269317	3.392900
576.536950	3.438600
585.074683	2.950900
594.203300	2.408400
589.326200	2.796000
591.062700	2.888100
595.876600	2.593800
587.316117	3.111200
580.495300	3.594300
588.942533	3.194200
592.395083	3.005800
588.164100	3.272700
600.221567	2.563400
601.587267	2.465300
599.762100	2.584800
603.030567	2.464700
601.717767	2.540000
596.941150	2.816700
595.424200	2.898300
589.727133	3.249100
597.994833	2.773900
598.398533	2.759800
598.876333	2.732800
601.815833	2.785000
602.010367	2.861600
600.869517	2.939300
606.402250	2.620200
604.693500	2.726400
598.226000	3.096000
598.562400	3.081300
591.878700	3.500400
600.316867	3.146000
593.381633	3.727000
603.975833	3.123400
606.431533	2.987500
597.118683	3.556000
600.049517	3.397700
606.488367	3.022400
614.811333	2.524300
605.571333	3.076300
598.735433	3.604900
597.174967	3.743900
597.557017	3.753800
595.180700	3.948900
605.905833	3.474700
610.663667	3.203300
611.072950	3.186600
601.743950	3.769200
620.594383	2.769100
616.300733	3.045700
617.447650	2.987400
618.157150	2.921100
607.572933	3.552700
614.384983	3.154900
613.128133	3.261400
610.113683	3.424300
610.196283	3.445000
615.412100	3.145500
616.304133	3.167800
615.300600	3.332700
609.276283	3.741700
614.274283	3.478900
612.345050	3.655500
615.635900	3.522900
611.371967	3.793700
621.800400	3.192600
618.353183	3.425500
620.647317	3.379400
617.718767	3.563600
626.743867	3.025400
623.598383	3.220900
619.309250	3.493500
624.729883	3.219400
621.560533	3.431200
629.778283	2.951500
626.759583	3.152500
618.927283	3.620500
634.532900	2.967000
640.067000	2.744100
633.363400	3.160800
631.383283	3.310900
631.280450	3.355800
627.071800	3.598200
628.237450	3.539700
621.493167	3.955400
646.407683	2.794600
631.229133	3.697000
633.593450	3.579300
642.111083	3.084400
642.273533	3.112900
653.923150	2.534100
646.826150	2.952300
638.885567	3.418100
635.429717	3.653300
643.181117	3.311900
640.407300	3.525000
644.100100	3.324300
637.602650	3.709800
638.389317	3.682100
645.046517	3.300500
642.985833	3.421900
642.467167	3.449300
646.964767	3.182000
649.015267	3.078500
664.759000	2.444700
659.575650	2.777400
657.601500	2.902200
653.953333	3.119500
662.515617	2.636900
652.774983	3.229300
651.795833	3.282400
659.204317	2.863400
674.563150	1.955400
659.787733	2.819500
652.507267	3.247700
658.956317	2.896400
656.519017	3.192800
653.786550	3.488700
660.180883	3.116800
659.808250	3.170100
658.030417	3.309800
658.210867	3.415400
662.849100	3.151200
663.479867	3.128300
662.520333	3.187900
661.814217	3.252200
667.791983	2.892100
659.300067	3.408200
658.220000	3.458400
664.281083	3.226000
661.279133	3.446200
659.549500	3.615900
661.218600	3.533400
660.512250	3.595800
670.093567	3.057500
671.031383	3.151600
674.272983	2.982700
663.078100	3.675300
663.955700	3.642300
667.355467	3.455000
670.531633	3.278500
666.754467	3.498800
672.733817	3.146000
676.461800	3.075600
678.147850	3.126900
680.860150	2.978100
675.371833	3.301000
676.118767	3.288500
670.831967	3.752600
679.137150	3.275100
670.628183	3.782200
666.815883	4.021900
668.666817	3.940400
678.059283	3.383800
676.900183	3.454900
676.003783	3.530800
685.489617	3.248300
682.462400	3.413100
685.074600	3.296100
684.318100	3.341400
682.369533	3.514900
682.823517	3.485900
687.825383	3.200800
684.305917	3.421400
679.706383	3.706900
685.120717	3.396200
687.915583	3.257200
683.887367	3.503300
688.507267	3.226400
687.421817	3.286100
684.721917	3.764900
689.804350	3.508800
688.150033	3.625900
692.359550	3.376200
696.608750	3.193200
698.537100	3.199500
684.788883	4.004200
689.968767	3.712400
688.452417	3.814700
692.289233	3.591100
685.410850	4.008300
701.822700	3.050100
704.502017	2.914400
698.253583	3.398800
695.831383	3.558100
696.770533	3.545800
693.276633	3.789400
705.722033	3.103000
705.593417	3.125000
699.889633	3.480400
708.330317	2.960900
700.582383	3.495700
713.925333	2.709100
696.385733	3.810400
703.683567	3.402200
703.766467	3.408200
702.103833	3.545800
701.127750	3.706200
708.528483	3.349600
710.269300	3.334800
707.339783	3.500800
717.568233	2.898400
715.938800	2.988600
697.355750	4.167000
705.733133	3.785200
706.989917	3.732800
711.151433	3.506800
714.613317	3.318200
698.161867	4.404800
711.795283	3.587200
711.557317	3.632000
718.605867	3.236900
718.079650	3.274200
709.814550	3.768900
708.662000	3.953700
709.444533	3.927100
731.452533	2.754400
720.820933	3.370900
720.669683	3.381700
718.524317	3.515900
724.928167	3.256100
718.559217	3.656300
725.801533	3.217300
720.522283	3.547900
722.266433	3.565600
726.368033	3.385300
716.231517	4.058600
718.591967	3.916700
722.277733	3.714700
727.839583	3.394300
723.290950	3.705000
731.287017	3.269900
720.933650	3.874200
723.376067	3.796400
727.885150	3.532800
730.809883	3.381700
724.536200	3.779400
726.370600	3.816300
721.692217	4.098200
732.439267	3.488000
731.807383	3.536500
729.684400	3.789600
727.720550	3.942600
733.033800	3.706200
735.903183	3.555700
740.057983	3.293500
738.041317	3.418100
740.532850	3.324300
737.245017	3.538700
738.972183	3.464200
746.920367	2.987300
740.499517	3.447800
733.387100	3.963600
737.240067	3.752000
733.686650	4.038300
744.501483	3.424600
744.030350	3.432000
745.000900	3.376800
744.245267	3.493400
751.025483	3.115900
744.967817	3.511400
754.425517	2.963600
750.508833	3.178300
742.530250	3.655200
750.603783	3.341800
750.807883	3.352000
743.369633	3.869800
751.226867	3.405200
749.768167	3.503300
745.352417	3.783800
753.838917	3.462800
750.319100	3.681000
744.893017	4.020200
750.359917	3.715100
759.619883	3.282400
759.724017	3.336500
762.659283	3.187900
762.719717	3.212600
760.841150	3.292800
759.058100	3.420000
763.664283	3.222400
756.066167	3.753800
769.749383	2.969200
761.862850	3.459300
755.592517	3.828500
754.508117	3.920000
758.543550	3.711600
767.215817	3.332000
765.268367	3.438800
770.150150	3.235200
765.360850	3.499200
756.852950	4.024200
760.224883	3.829900
763.687367	3.729500
762.316183	3.836200
765.950550	3.630300
766.903283	3.577300
761.119400	4.057800
758.972133	4.229500
760.573317	4.200200
760.794167	4.202000
772.274267	3.541100
773.058083	3.488200
763.741333	4.133500
768.842967	3.913100
767.482567	4.048100
761.092433	4.417900
774.130633	3.672100
761.795633	4.442800
775.824233	3.625000
775.596167	3.779900
777.954983	3.660700
773.193767	3.962600
777.901183	3.677800
784.383283	3.413500
782.050983	3.555100
779.378867	3.748700
781.789067	3.614300
784.654483	3.427600
772.857133	4.132000
777.969767	3.888200
787.607733	3.318400
776.034833	4.011400
783.986350	3.548400
774.998533	4.190500
775.557683	4.217800
786.470850	3.670500
789.329783	3.475000
791.246933	3.392500
785.880900	3.719400
778.063083	4.287700
783.226533	4.043800
792.496467	3.492200
795.350800	3.324900
780.582617	4.201700
784.078317	4.037000
785.477333	3.971800
783.711517	4.207400
793.879567	3.633800
787.093567	4.048100
791.836850	3.778200
790.047933	3.911800
784.392600	4.254900
809.038900	2.853300
799.754533	3.414700
794.348467	3.733400
793.784567	3.756200
800.129817	3.524900
799.761317	3.588800
789.938700	4.278900
797.867617	3.790700
806.321283	3.291100
803.433183	3.456400
797.409050	3.943200
801.984267	3.715100
810.196033	3.261400
798.772183	3.939400
806.615800	3.501600
795.216483	4.193200
802.808067	3.927500
805.197383	3.788500
803.697483	3.891700
813.668083	3.286600
806.456317	3.740600
808.121700	3.691500
803.839150	3.976200
800.671783	4.205500
804.000783	4.041400
812.743550	3.554100
803.576750	4.107300
803.870417	4.230200
814.076900	3.658500
811.285783	3.884500
813.259550	3.803400
815.800067	3.665600
821.146350	3.341400
814.138533	3.895300
822.355600	3.401700
816.450133	3.778900
815.237817	3.864200
822.277850	3.550200
817.670850	3.864900
823.518683	3.565600
813.165200	4.198500
818.989900	3.858600
820.542650	3.773400
813.260167	4.415300
821.831950	3.853800
819.606600	4.006200
819.807250	3.981900
819.676833	4.011100
822.757833	3.886600
826.524200	3.678000
829.181150	3.542400
819.690583	4.136500
824.077367	3.857600
829.059850	3.610800
818.153950	4.367100
833.019233	3.489700
838.809850	3.191400
829.959950	3.702600
828.691667	3.779300
829.787517	3.707900
830.610333	3.815800
832.986517	3.690800
827.358383	4.061200
834.677367	3.634400
830.524050	3.928500
832.274450	3.862800
831.727517	3.945500
838.816200	3.548100
831.829350	3.966600
826.467717	4.309700
827.009400	4.310400
828.100133	4.306900
830.703017	4.160900
841.662667	3.570800
831.141217	4.218800
834.956650	4.016700
835.875267	3.999200
840.514567	3.831800
842.667033	3.710500
828.964467	4.606700
837.374283	4.096000
837.841250	4.098000
834.437700	4.307100
843.074317	3.896000
845.248150	3.801900
837.179583	4.357600
840.371167	4.193600
842.620967	4.078400
843.316283	4.054000
853.775350	3.499200
847.436683	3.890200
840.496367	4.292000
838.625200	4.424400
845.516500	4.120800
848.490833	4.039600
848.914750	4.083300
849.988917	4.062800
852.514000	3.914400
861.511317	3.375500
855.570717	3.748700
848.590850	4.299900
857.603900	3.780600
849.960400	4.257900
842.771050	4.692900
846.013050	4.668300
856.458750	4.092900
853.627300	4.314600
855.221317	4.242500
844.401800	4.912800
856.849733	4.188700
857.086833	4.295500
859.928400	4.157400
865.856233	3.848800
862.845050	4.032900
858.245617	4.334000
859.165767	4.284200
864.117433	4.017700
870.158800	3.705000
868.914667	3.804800
869.760233	3.763000
867.168150	3.934500
870.538467	3.743900
868.610917	3.909500
865.646050	4.193400
867.954700	4.044900
874.845000	3.647100
870.313367	3.925400
869.348000	4.108200
865.894400	4.350600
865.481883	4.413400
869.819633	4.163500
869.074183	4.222000
860.066800	4.753800
874.431333	3.951400
869.505750	4.278000
871.372533	4.183000
873.709417	4.033700
866.279983	4.499200
878.881250	3.763500
871.595600	4.247400
873.529300	4.180800
871.055717	4.373300
871.591500	4.342500
873.738133	4.312300
873.406433	4.400200
878.139617	4.181600
873.031767	4.580900
874.890733	4.488700
884.041417	3.980300
879.226400	4.325400
871.951533	4.868800
878.558800	4.503600
889.128183	3.929200
886.353200	4.099800
879.088050	4.533900
879.271850	4.521000
884.402217	4.401800
888.830633	4.153000
886.791317	4.267100
893.191067	3.905600
895.921750	3.856800
895.496267	3.907400
898.654100	3.772800
895.610633	3.979000
899.119950	3.766500
898.677217	3.785900
902.631450	3.688800
901.983050	3.706500
890.831183	4.376800
888.858217	4.485200
898.220033	4.026400
897.670933	4.120900
895.780850	4.263600
894.710383	4.347400
895.579367	4.301900
900.168583	4.050400
895.329283	4.344700
891.136417	4.741700
890.964100	4.808700
901.481817	4.248500
893.523983	4.725100
894.012583	4.704700
908.360933	3.868000
906.825233	4.071100
905.876683	4.165600
906.736867	4.126100
905.206167	4.224200
902.769450	4.473000
899.977233	4.654300
902.309650	4.602300
906.636750	4.395900
911.670533	4.155700
895.881200	5.119200
905.540400	4.563600
908.378300	4.410000
907.728033	4.480300
913.426333	4.260700
913.387367	4.282400
917.143333	4.066900
907.579717	4.661000
906.089500	4.805400
915.432600	4.267500
911.908117	4.538300
911.848483	4.541200
915.472483	4.337800
911.870900	4.551600
912.037567	4.704500
906.262133	5.065000
915.591250	4.550400
911.777983	4.792900
918.719000	4.550100
925.697083	4.134700
919.760700	4.480800
916.140733	4.708300
919.349517	4.648700
921.471867	4.547600
920.121183	4.624300
913.341600	5.039400
923.147900	4.565400
932.615800	4.052400
932.682583	4.051600
929.812200	4.225800
928.544850	4.276500
930.371400	4.177500
923.540967	4.571000
926.048317	4.422500
926.716250	4.399500
916.848767	5.109500
915.301200	5.254500
930.084767	4.409600
926.478783	4.654600
931.376733	4.369600
930.992217	4.401800
931.852150	4.515300
933.763850	4.473300
938.550367	4.190300
948.825817	3.570500
926.001550	4.908300
937.833183	4.213300
948.302533	3.587200
940.313183	4.064500
934.976867	4.658300
940.110983	4.368400
940.805767	4.334600
937.527600	4.544100
944.677583	4.173400
946.238967	4.109900
935.784250	4.759200
945.448100	4.194300
940.030150	4.532400
939.917183	4.561000
946.106233	4.234300
945.588183	4.325500
949.979350	4.077300
945.699700	4.364700
944.188883	4.496200
946.154967	4.388600
941.738550	4.674000
940.383033	4.790200
955.502783	3.900400
953.057550	4.299900
954.123883	4.301200
957.741850	4.094400
953.474050	4.332900
952.421467	4.424300
950.307583	4.549000
954.651433	4.281700
960.417050	3.964200
949.477700	4.929300
957.609800	4.464000
955.639983	4.601800
952.094783	4.827700
952.355200	4.855200
962.933550	4.258500
960.724167	4.383800
956.191833	4.685200
957.170983	4.654600
958.304850	4.589700
952.207300	5.053200
952.131183	5.224300
964.635750	4.504800
966.339867	4.425800
964.415467	4.539500
960.999183	4.774000
961.450667	4.730000
958.619233	4.919500
949.724867	5.533700
973.134267	4.384400
978.511767	4.069100
975.436400	4.256100
968.166767	4.689800
971.392917	4.484000
964.448100	4.899900
957.259100	5.346300
970.370667	4.563800
973.932100	4.663500
969.342300	4.959000
984.514883	4.073800
971.459833	4.846900
981.360883	4.301800
978.744117	4.511300
984.860100	4.167000
986.450000	4.051200
980.522300	4.432800
975.467117	4.726100
973.787600	4.896900
980.558117	4.623200
990.966433	3.989800
987.556417	4.208600
980.111550	4.642800
974.224367	5.020400
974.470983	5.032600
984.340250	4.452300
985.164650	4.460100
986.153283	4.684900
984.331383	4.830400
985.504583	4.774900
985.815183	4.759000
995.778000	4.168200
988.883267	4.583900
992.001150	4.401900
986.541867	4.716200
990.898867	4.778900
991.665867	4.742600
998.569750	4.341300
999.300067	4.299200
1001.892417	4.273700
1006.918550	4.018800
997.667800	4.583100
997.304817	4.592300
992.252500	4.893900
996.351733	4.673200
997.297917	4.733000
1002.085217	4.576700
992.613283	5.146600
990.433400	5.304300
1002.803233	4.579600
994.833800	5.059800
1006.442700	4.387800
1003.602533	4.562800
997.074400	5.004300
993.070483	5.508700
1005.197600	4.798200
1001.694250	5.031300
998.517850	5.230500
1010.952600	4.494000
1003.417250	4.950300
1005.323783	4.841200
1011.826100	4.452900
1014.932483	4.559500
1014.833233	4.556500
1013.980817	4.616000
1013.317117	4.642100
1014.980217	4.662500
1011.149233	4.933600
1017.785417	4.525400
1007.606467	5.184800
1007.366867	5.223800
1011.991883	4.955200
1010.861817	5.144000
1019.565417	4.737800
1015.834117	4.975400
1013.394633	5.117500
1021.205783	4.644100
1024.900300	4.430700
1020.931150	4.674000
1024.193167	4.469000
1016.334233	4.990600
1024.312050	4.769100
1024.977750	4.732200
1022.200033	4.894900
1030.409183	4.446700
1022.769183	5.008000
1033.323567	4.387700
1034.158933	4.338400
1021.007633	5.118100
1028.211083	4.661500
1022.168717	5.032100
1025.069250	5.046000
1028.489550	4.879800
1033.697650	4.544400
1029.148717	4.825100
1036.551817	4.394300
1025.782433	5.022100
1029.083617	4.850600
1035.818783	4.447900
1025.853633	5.301700
1033.179433	4.902100
1030.680283	5.068900
1039.988167	4.511000
1036.991550	4.716000
1037.670683	4.738600
1040.543850	4.562100
1038.190033	4.721500
1034.754917	4.952900
1024.455950	5.603100
1035.096100	4.990800
1033.984067	5.069600
1036.214333	5.003500
1042.059317	4.903100
1044.953467	4.730000
1042.372900	4.887300
1041.877567	4.934900
1051.803717	4.493600
1048.034983	4.741300
1045.434567	4.896200
1052.447783	4.467700
1037.293967	5.375900
1043.953750	5.008500
1052.942833	4.478200
1046.371550	4.878300
1047.197333	4.830700
1049.257700	4.697400
1048.326633	4.869100
1050.897817	4.784900
1045.191383	5.166100
1050.761283	4.863700
1047.606333	5.088700
1051.835933	4.859200
1057.127000	4.555800
1047.620917	5.133200
1051.975950	4.906200
1049.718100	5.049900
1050.153817	5.044700
1048.522917	5.144600
1059.905483	4.486300
1060.721483	4.844500
1058.063450	5.032200
1052.164483	5.398300
1053.129467	5.351300
1055.189167	5.372000
1061.378800	5.042700
1058.025033	5.260300
1057.829450	5.303700
1048.135400	5.893800
1055.322367	5.489000
1061.411433	5.134900
1062.722767	5.063900
1063.887983	5.011600
1067.019817	4.827500
1068.816367	5.052500
1061.463133	5.520400
1070.492383	4.998700
1072.210217	4.864400
1073.059350	4.968600
1074.961650	4.848900
1075.539933	4.845400
1070.254083	5.168500
1071.671733	5.112400
1071.515167	5.269400
1066.574100	5.578800
1076.113767	5.074700
1070.501500	5.424600
1075.984300	5.131800
1076.302517	5.141300
1081.166467	4.964300
1077.087383	5.208100
1082.286183	4.936900
1087.039217	4.656500
1089.422200	4.538400
1082.118050	4.977000
1086.624383	4.884700
1085.096050	4.978500
1093.016833	4.515700
1095.398283	4.360600
1088.169583	4.846600
1085.889183	4.997200
1085.415867	5.084900
1088.462383	4.916800
1087.034417	5.015000
1086.309817	5.040500
1080.516383	5.476300
1082.464350	5.461800
1099.028783	4.520200
1089.448500	5.109600
1090.993600	5.027400
1087.538233	5.234800
1084.657383	5.453800
1091.760500	5.151000
1090.346850	5.254500
1098.122333	4.845400
1089.250517	5.384900
1091.721433	5.273800
1090.054133	5.395600
1099.197617	5.019200
1100.239167	4.958900
1087.200917	5.755400
1084.120400	5.955900
1085.159717	6.035600
1091.125367	5.749400
1088.069367	6.009800
1096.829233	5.503000
1096.140483	5.443300
1095.719700	5.537100
1100.431067	5.338400
1104.467300	5.154000
1095.042650	5.760900
1103.939983	5.269900
1108.043433	5.040700
1106.941500	5.115600
1105.013717	5.237000
1108.760250	5.041200
1099.677033	5.586100
1101.906500	5.469000
1109.079200	5.054400
1111.705867	4.966700
1110.910483	5.041900
1110.980117	5.068700
1108.025867	5.262500
1103.407883	5.565700
1107.970017	5.298500
1110.486267	5.316200
1108.710067	5.483900
1111.347517	5.408300
1114.742583	5.207500
1109.903683	5.485300
1111.514733	5.401300
1101.797083	6.163600
1119.291283	5.152900
1114.185433	5.443300
1118.024200	5.265000
1112.764200	5.610300
1122.784267	5.048600
1125.122583	4.907500
1124.698633	4.975000
1116.894783	5.437300
1128.830067	4.733000
1117.194233	5.453800
1122.510183	5.282200
1124.727817	5.177300
1117.834567	5.659400
1125.809000	5.193600
1123.535817	5.359400
1126.574017	5.195600
1130.426017	5.147000
1139.695750	4.595100
1131.497933	5.074600
1130.330317	5.130800
1140.215350	4.680000
1127.717983	5.455600
1128.999450	5.446800
1138.431200	4.896000
1127.369650	5.569200
1134.518783	5.162500
1131.115250	5.475600
1133.418383	5.422300
1131.798833	5.582800
1133.341483	5.527900
1142.488783	5.003500
1143.486167	4.942100
1145.556867	4.826000
1142.628850	4.999200
1140.538450	5.111400
1141.211200	5.072400
1143.794433	4.933300
1146.733717	4.796000
1143.909633	4.961500
1144.842717	4.922600
1147.764517	4.768700
1147.412267	4.799900
1140.245450	5.213400
1143.632817	5.186000
1136.394200	5.686500
1147.935583	5.097100
1145.286217	5.270600
1150.214000	4.999800
1140.337233	5.581900
1140.656883	5.754100
1150.179183	5.203600
1162.519767	4.464200
1157.920750	4.717200
1156.887300	4.917900
1157.182567	4.947200
1160.889217	4.756700
1154.435067	5.187800
1152.207500	5.329200
1156.776583	5.057800
1156.180850	5.131800
1150.601817	5.513900
1168.450050	4.458000
1165.208067	4.687100
1165.018233	4.697800
1155.497233	5.300800
1158.820583	5.118100
1163.776033	4.968400
1163.808300	4.959900
1165.720583	4.830700
1163.596950	4.989600
1160.843000	5.320500
1162.659450	5.220900
1160.309683	5.437000
1162.050400	5.346600
1157.854367	5.624600
1162.215767	5.372900
1169.938667	5.059400
1163.636500	5.492700
1159.867883	5.774800
1176.156583	4.810000
1168.517517	5.281100
1178.527567	4.695200
1169.768200	5.294700
1170.065200	5.354400
1170.029050	5.374800
1173.233117	5.158100
1177.940000	4.914000
1184.623150	4.635000
1182.794883	4.792900
1174.987983	5.312200
1174.741267	5.321900
1176.317417	5.226800
1177.070183	5.203600
1183.566783	4.947400
1174.208350	5.540100
1184.397133	5.001700
1176.138300	5.497500
1179.352267	5.318000
1188.368250	4.760700
1187.134000	5.020200
1177.033733	5.629000
1185.027433	5.176900
1185.208367	5.169200
1180.784033	5.577400
1182.572133	5.505100
1177.725967	5.866400
1183.616483	5.509600
1192.492550	4.978200
1192.373217	5.003900
1185.651917	5.504300
1186.892233	5.493700
1193.046950	5.181000
1188.855233	5.453200
1193.004150	5.208600
1187.289283	5.564500
1193.427850	5.246400
1206.548917	4.574000
1193.681217	5.351300
1194.150217	5.308400
1188.041733	5.683600
1197.767467	5.257100
1197.311817	5.321900
1193.322033	5.635600
1199.163117	5.295800
1204.359883	4.991200
1197.714850	5.405100
1195.641450	5.662800
1192.758083	5.877100
1210.689050	4.889100
1196.890383	5.725300
1201.379900	5.470200
1204.644450	5.284500
1197.731533	5.901400
1206.773467	5.348900
1203.410800	5.558700
1206.127183	5.401300
1213.452600	5.074200
1208.803333	5.379700
1220.184717	4.751000
1210.735500	5.328600
1213.199167	5.192300
1207.353067	5.522600
1201.213433	5.940400
1213.412567	5.336300
1206.150033	5.789500
1211.004283	5.539300
1201.923717	6.109400
1204.623517	5.988800
1218.647667	5.169800
1222.361883	5.097100
1221.759817	5.114600
1218.576417	5.285900
1214.900567	5.520800
1216.501750	5.546100
1224.204983	5.107000
1213.029900	5.839800
1211.189817	5.956700
1217.888950	5.590200
1216.021117	5.681300
1218.485783	5.639500
1213.776800	6.021900
1216.035067	5.957300
1220.642367	5.676500
1227.986050	5.244000
1223.968067	5.480600
1222.226717	5.629700
1230.751283	5.226100
1233.776067	5.064200
1230.207083	5.308900
1223.496850	5.722500
1223.419483	5.733700
1223.137883	5.768500
1222.457817	5.829800
1222.019850	5.872500
1223.557650	5.814300
1226.072533	5.679700
1225.664567	5.816000
1225.696067	5.846000
1225.314317	5.915300
1227.512250	5.810400
1233.734733	5.465800
1230.603533	5.673400
1235.863983	5.499400
1239.596517	5.313200
1238.549533	5.430700
1236.243333	5.591500
1233.665433	5.751400
1234.062200	5.749500
1249.007200	5.039400
1251.164433	4.927000
1246.440617	5.209700
1237.795417	5.730800
1241.802517	5.551100
1233.774383	6.146800
1240.666867	5.763200
1240.239000	5.795100
1247.265200	5.399700
1245.469533	5.566600
1237.556150	6.057000
1244.151767	5.727800
1244.607517	5.691200
1245.440017	5.681900
1250.257117	5.391500
1248.960767	5.469200
1241.553050	5.922600
1245.237300	5.896500
1249.536150	5.658300
1248.720667	5.735300
1261.979150	4.928100
1254.896583	5.431900
1254.486583	5.515600
1256.485533	5.443300
1259.589117	5.298800
1252.402333	5.734600
1257.450183	5.443300
1258.906883	5.362900
1258.338117	5.425100
1256.179300	5.570100
1261.797083	5.243200
1260.091017	5.374400
1256.730733	5.718100
1249.007017	6.202100
1250.263400	6.183900
1259.932033	5.646100
1263.219550	5.427600
1256.730733	5.850700
1258.556150	5.914200
1266.804083	5.474800
1260.237583	5.931100
1258.647317	6.052400
1250.054267	6.603500
1268.991983	5.474200
1267.441750	5.688300
1269.719000	5.614800
1274.725233	5.393500
1265.159717	6.003200
1261.270800	6.247500
1261.988283	6.207100
1270.902100	5.709300
1268.886300	5.863500
1269.955817	5.847500
1275.791333	5.556100
1273.278000	5.720100
1275.286433	5.628400
1275.861233	5.617900
1279.621617	5.540900
1278.453817	5.624000
1274.189567	5.898200
1272.729267	6.006800
1276.762383	5.920300
1275.314183	6.039700
1278.644200	5.906400
1280.359083	5.797300
1277.050417	5.994800
1279.735900	5.851800
1287.553583	5.481100
1289.692417	5.417900
1282.208017	5.903000
1286.220450	5.677200
1293.729350	5.222400
1274.244683	6.394000
1285.212267	5.925800
1282.599683	6.083200
1282.587850	6.111900
1281.585050	6.198600
1281.406400	6.287700
1285.377217	6.183800
1285.836200	6.186300
1287.355117	6.126800
1290.115250	5.976000
1297.217683	5.564800
1291.803683	5.869600
1288.134200	6.168900
1294.876083	5.779000
1295.074550	5.841900
1288.381033	6.247000
1289.348033	6.200200
1293.752867	5.968700
1293.996500	6.133500
1298.641117	5.857700
1299.210617	5.857700
1292.688300	6.241200
1300.957450	5.877900
1306.022417	5.623700
1319.198300	4.887300
1310.733783	5.393200
1302.627467	5.886500
1298.597250	6.114000
1305.287617	5.832200
1304.202167	5.971700
1300.973917	6.202100
1306.643017	5.882600
1304.310250	6.024000
1305.547650	5.944200
1309.859983	5.710300
1309.123233	5.887600
1309.365250	5.867100
1311.020467	5.785400
1316.954167	5.477000
1306.605650	6.209100
1312.503400	5.894400
1313.490150	5.883300
1319.554217	5.533100
1311.171850	6.054000
1313.366733	5.935600
1321.393700	5.558100
1322.038733	5.531200
1317.852033	5.795500
1312.266817	6.133400
1314.655650	5.997300
1314.973317	5.992700
1314.444383	6.062200
1320.100233	5.748100
1310.143733	6.366400
1315.875950	6.064800
1319.712667	5.940500
1329.768433	5.419000
1325.190283	5.716900
1329.329067	5.541200
1308.914050	6.796500
1320.947917	6.017600
1323.990317	5.893400
1320.435500	6.269100
1324.963267	6.038000
1331.797917	5.672600
1323.681183	6.185500
1331.305967	5.734100
1327.733767	5.959700
1336.780017	5.580500
1332.135650	5.852400
1325.236600	6.280200
1336.774633	5.602900
1337.416417	5.671100
1335.085833	5.846800
1340.672300	5.526600
1333.944083	5.917300
1334.197100	5.908800
1326.225717	6.392300
1330.715317	6.137300
1325.751450	6.481800
1334.519383	6.157300
1333.394717	6.262100
1351.062883	5.251000
1337.724417	6.040100
1344.189017	5.684600
1341.017217	5.835800
1335.150950	6.310500
1349.469200	5.562600
1344.773883	5.893000
1347.919617	5.706800
1342.692867	6.009800
1343.741917	5.936300
1346.735250	5.772000
1347.088300	5.751900
1346.682600	5.841900
1343.361850	6.167100
1351.451300	5.707200
1353.272933	5.607400
1346.307917	6.022700
1342.561800	6.263400
1337.416500	6.581100
1339.654033	6.470800
1348.925483	5.947900
1347.726767	6.165800
1343.807167	6.436100
1345.547817	6.354800
1357.815883	5.645200
1342.688933	6.706300
1340.859467	6.859400
1346.972133	6.558700
1340.416717	6.992300
1351.361933	6.396700
1364.807867	5.608700
1367.147883	5.601700
1363.823450	5.873400
1369.507983	5.553100
1369.683233	5.531200
1368.980267	5.567600
1365.665067	5.772200
1361.242083	6.051700
1359.414283	6.173500
1356.111500	6.483600
1357.370300	6.622500
1366.220300	6.144000
1372.221383	5.771800
1367.410617	6.068300
1362.252067	6.384800
1362.704883	6.358000
1360.537117	6.518000
1362.345867	6.424100
1367.267517	6.466700
1372.980450	6.153300
1366.938000	6.523200
1370.200650	6.341700
1368.694600	6.562500
1366.627950	6.754500
1378.358833	6.062200
1377.140733	6.130000
1362.969333	6.991300
1373.688500	6.371400
1375.321917	6.427700
1367.521000	6.947700
1369.882800	6.804000
1371.350883	6.747100
1369.894717	6.857000
1370.027417	6.892700
1376.619733	6.496000
1375.165217	6.588500
1380.199167	6.378500
1374.135383	6.931600
1381.437100	6.521100
1379.810500	6.666300
1380.960650	6.599400
1385.999017	6.291500
1381.924000	6.528000
1392.150833	5.897500
1387.683750	6.188100
1397.463483	5.887000
1391.009450	6.268500
1382.901050	6.762900
1393.962983	6.101500
1383.886033	6.843100
1385.732267	6.794900
1391.865000	6.448200
1397.112817	6.134300
1407.196983	5.524000
1395.227317	6.237800
1399.660750	6.029400
1396.411250	6.270600
1396.592417	6.266000
1394.982067	6.377600
1396.036733	6.329200
1389.579350	6.717000
1393.387350	6.505800
1394.608817	6.436700
1396.836200	6.471300
1406.221983	6.069700
1400.343350	6.432600
1405.486783	6.130900
1402.664100	6.285600
1401.462783	6.365800
1402.463783	6.328000
1407.278483	6.043300
1406.764150	6.133200
1405.994150	6.279000
1401.149817	6.570200
1399.647300	6.686100
1396.955650	6.886500
1416.955417	5.937500
1411.609950	6.290700
1415.590883	6.072700
1412.781883	6.242800
1411.743050	6.319200
1408.513483	6.504100
1417.595183	6.088900
1412.539350	6.498900
1418.810600	6.135600
1419.074400	6.118200
1416.622967	6.251000
1414.224233	6.397300
1417.235433	6.212800
1415.445817	6.320000
1417.176650	6.492300
1413.021450	6.803700
1421.341100	6.320400
1421.027133	6.313300
1419.402100	6.450300
1423.480300	6.325800
1414.992267	6.872900
1424.371000	6.341100
1428.700400	6.080400
1421.995833	6.500500
1426.448383	6.271300
1422.120833	6.734200
1426.501083	6.517900
1427.828050	6.463500
1432.280817	6.212600
1425.902467	6.639200
1431.825250	6.264300
1426.295083	6.581800
1424.159767	6.719000
1435.978733	6.366400
1437.421000	6.287400
1433.629417	6.533000
1433.011483	6.571600
1429.057283	6.945100
1428.055067	7.032500
1435.037800	6.639900
1421.671667	7.452500
1438.841967	6.607700
1432.658283	6.957400
1441.634433	6.442300
1437.203183	6.691000
1439.473850	6.580200
1442.926850	6.510000
1437.896633	6.846700
1443.216383	6.541000
1438.811433	6.822100
1443.257933	6.538600
1450.485483	6.134800
1447.362067	6.321200
1446.342383	6.378400
1439.022983	7.112500
1451.835067	6.379700
1449.623217	6.547400
1456.019017	6.159800
1462.950567	5.891900
1455.128483	6.358600
1455.187117	6.383000
1453.688367	6.479000
1453.537067	6.494900
1463.206383	5.939200
1459.501450	6.177600
1452.772083	6.578500
1449.182817	6.920300
1460.931000	6.318600
1462.236333	6.239800
1456.541200	6.570600
1457.161633	6.523000
1459.153717	6.399200
1462.805350	6.199500
1455.397867	6.632900
1450.625183	7.041100
1457.413117	6.857300
1461.281467	6.662900
1455.995800	7.012500
1460.080450	6.810300
1454.302250	7.159500
1454.955733	7.145500
1461.014533	6.829900
1459.546617	6.922400
1462.875633	6.748300
1467.109200	6.498300
1478.981017	6.039800
1478.495683	6.125800
1478.921733	6.097000
1485.748700	5.670600
1466.319500	6.808800
1470.213567	6.595700
1484.727933	5.768500
1473.406850	6.441600
1474.519267	6.378800
1474.283267	6.392000
1469.447000	7.100700
1477.454067	6.607700
1479.809100	6.492300
1481.697550	6.384300
1476.503267	6.852500
1480.811017	6.609800
1484.560133	6.389500
1488.120617	6.187400
1493.091183	5.913700
1482.969300	6.534300
1482.004967	6.600200
1481.303550	6.665400
1481.556633	6.651100
1480.715717	6.717800
1483.089817	6.618200
1483.206217	6.802100
1482.884917	6.860300
1484.744550	6.765600
1488.566933	6.552400
1485.705933	6.733600
1484.580700	6.823800
1494.661183	6.235300
1503.560733	5.746600
1492.024533	6.689500
1486.976133	7.029700
1493.853150	6.635100
1503.182367	6.082400
1489.683667	6.953900
1489.059767	6.966200
1488.323100	7.018500
1496.712367	6.533600
1497.897633	6.679000
1502.658400	6.540300
1495.129683	6.995800
1503.973817	6.476900
1496.785700	6.912900
1501.538550	6.611400
1499.971067	6.709400
1494.648733	7.034500
1503.258550	6.562500
1504.290983	6.519400
1497.263967	6.930800
1497.975633	6.896800
1503.616367	6.680300
1503.404167	7.010000
1506.117533	6.875200
1511.680267	6.555200
1506.623867	6.853700
1505.336050	6.969300
1505.092550	7.001400
1515.634933	6.583600
1510.224417	6.907100
1510.791150	6.883500
1513.597550	6.734400
1520.075650	6.477000
1515.489567	6.770900
1508.253900	7.223100
1505.654367	7.368200
1513.131467	6.929600
1519.730167	6.562100
1523.094817	6.555200
1524.669467	6.484400
1526.550183	6.383200
1518.247500	6.870600
1521.370150	6.757800
1522.681967	6.750200
1505.256950	7.772100
1518.854467	6.989300
1521.883250	6.830400
1520.289667	6.945500
1524.958033	6.715000
1530.482133	6.539500
1528.168600	6.695100
1521.350450	7.109400
1530.541817	6.582200
1521.986233	7.222300
1522.297667	7.228700
1528.272717	6.853700
1528.703983	6.840100
1524.109933	7.120300
1526.421467	6.993200
1530.723967	6.819200
1529.183533	6.946900
1524.447133	7.291600
1524.513833	7.286500
1529.164800	7.017600
1524.115200	7.344600
1532.178333	7.126900
1533.179933	7.046500
1536.656467	6.859400
1536.606883	6.882400
1544.959517	6.484100
1546.697700	6.460800
1542.011350	6.741600
1533.391767	7.258700
1532.871217	7.301600
1534.501000	7.233900
1540.269467	7.022000
1544.680800	6.902100
1539.449700	7.245300
1541.212350	7.157400
1544.034250	7.009800
1544.643133	7.025200
1554.168950	6.464100
1546.482967	6.933800
1547.929950	6.837000
1552.185367	6.608300
1549.265950	6.765000
1550.135417	6.897500
1552.031800	6.828600
1546.542933	7.179400
1550.412750	6.971100
1544.526267	7.343600
1555.875550	6.656100
1555.197117	6.945500
1556.879683	6.858100
1552.049067	7.156400
1557.591900	6.830400
1559.964583	6.772300
1559.903250	6.828000
1556.763333	7.037800
1560.753933	6.778000
1561.425917	6.750200
1558.332683	6.966700
1561.214917	6.889400
1563.891150	6.870600
1553.278067	7.518200
1558.661683	7.211200
1564.540517	6.873200
1558.968267	7.367900
1561.482183	7.264600
1562.715483	7.187800
1564.781067	7.083800
1569.659817	6.795500
1567.556350	6.936600
1559.430333	7.614700
1558.354883	7.686400
1554.625717	7.937300
1565.554583	7.286500
1572.844950	6.835800
1578.356283	6.532300
1576.506300	6.775500
1577.853800	6.721800
1576.958767	6.785300
1568.287400	7.317900
1573.153883	7.170100
1583.225267	6.663200
1588.661017	6.352400
1584.924850	6.549300
1574.455117	7.183700
1578.212150	6.973200
1573.431167	7.328900
1574.183333	7.455400
1572.053950	7.635000
1579.178167	7.217300
1587.713400	6.738300
1584.700750	7.034100
1578.598900	7.404900
1577.715317	7.471400
1582.014100	7.224000
1586.010817	7.019300
1587.168033	6.940900
1577.608150	7.623900
1580.951900	7.459500
1582.730600	7.394400
1588.743950	7.029000
1593.974350	6.852300
1589.954850	7.129200
1585.930217	7.397900
1591.227267	7.102100
1586.608550	7.379100
1588.124683	7.301800
1583.979700	7.658400
1587.037667	7.518200
1591.031183	7.302100
1594.907667	7.085300
1584.387717	7.702100
1589.246733	7.429000
1589.338533	7.442500
1589.043900	7.480500
1595.116950	7.189500
1593.792550	7.393200
1596.040950	7.281000
1602.952383	6.906400
1604.046033	6.883900
1608.178133	6.676900
1603.181933	7.004200
1600.277217	7.216100
1603.758717	7.028000
1607.833467	6.795500
1608.830817	6.741200
1606.160783	7.102000
1605.324583	7.195900
1607.789700	7.059300
1607.141483	7.119100
1603.411633	7.382200
1612.055717	6.862100
1613.081083	6.792400
1619.714917	6.412400
1612.839533	7.137400
1613.155167	7.144100
1610.429500	7.351800
1613.913417	7.149200
1620.420433	6.856000
1619.995817	6.966200
1613.825933	7.352500
1613.630717	7.356800
1608.960000	7.650000
1620.868567	6.963800
1621.778683	6.967600
1622.996367	7.021100
1624.201733	6.963700
1627.207267	6.782900
1619.906833	7.216900
1624.161333	6.978100
1617.737750	7.370700
1620.557667	7.228100
1616.669800	7.459500
1620.273283	7.547500
1630.392283	7.001500
1634.022750	6.828000
1629.853067	7.114700
1636.672650	6.715200
1629.638517	7.162700
1640.715717	6.643700
1639.661383	6.731500
1635.878450	6.959100
1634.681933	7.048300
1639.905483	6.807700
1640.526333	6.793600
1630.260650	7.409700
1636.347717	7.065200
1636.182033	7.081000
1634.853567	7.152500
1630.149767	7.455800
1633.080700	7.304400
1632.670267	7.363700
1639.490967	6.970100
1636.940983	7.187500
1635.681500	7.385100
1631.996333	7.644700
1627.714867	7.930100
1633.681817	7.624400
1642.144517	7.177400
1640.629400	7.351800
1649.174133	7.003000
1643.924267	7.335500
1646.620750	7.253700
1644.322783	7.430500
1646.963833	7.281100
1648.724617	7.208600
1650.222000	7.153200
1651.454867	7.085900
1653.495467	7.093700
1650.824967	7.265600
1652.274617	7.176800
1644.977400	7.633500
1648.538050	7.572000
1652.335917	7.401800
1649.277600	7.597200
1648.065883	7.699300
1659.924550	7.009500
1650.255900	7.596900
1653.066517	7.583300
1654.128633	7.631800
1655.328533	7.593100
1660.264617	7.311200
1653.912283	7.677700
1655.531033	7.595800
1655.382700	7.618200
1656.763883	7.552300
1660.636817	7.471400
1665.692717	7.387400
1666.824883	7.331500
1668.417483	7.225300
1671.724983	7.046500
1671.050417	7.219400
1667.663400	7.438800
1669.741083	7.342000
1668.569467	7.434800
1669.634600	7.377900
1670.596267	7.307300
1657.846783	8.290000
1664.816567	7.913000
1670.437350	7.607700
1669.126733	7.677100
1668.939350	7.691700
1663.046950	8.082300
1673.676600	7.463400
1673.317450	7.477800
1670.209800	7.874400
1670.296150	8.002200
1683.152867	7.241600
1680.835100	7.397100
1674.869167	7.766000
1677.375650	7.643700
1675.955933	7.750300
1674.408650	7.861500
1676.632300	7.872900
1690.018800	7.278300
1688.225033	7.352500
1692.170350	7.132800
1688.907617	7.336700
1697.528667	6.963800
1689.065600	7.471800
1685.520167	7.683200
1688.001633	7.547800
1685.264500	7.722300
1695.952750	7.101600
1682.678317	7.922900
1688.400850	7.587000
1693.382417	7.301300
1694.647850	7.229400
1693.053833	7.574200
1687.622667	7.988900
1687.104733	8.038000
1697.963567	7.416800
1692.054650	7.789800
1697.825700	7.428000
1687.244300	8.055300
1695.523750	7.599300
1688.644083	8.014000
1698.121750	7.454100
1686.477083	8.254600
1697.717367	7.625900
1698.805117	7.581800
1706.967650	7.111200
1695.587867	7.842500
1694.406950	7.980600
1712.024933	6.941800
1705.816000	7.330200
1707.950800	7.225800
1694.298517	8.088500
1700.509017	7.742000
1708.416567	7.298900
1700.305233	7.785700
1708.637067	7.649300
1708.834167	7.654400
1702.543500	8.079600
1700.955100	8.190300
1701.917483	8.264200
1709.566050	7.869600
1711.994050	7.734600
1718.853167	7.319600
1714.025033	7.636600
1718.327400	7.386600
1722.795233	7.310500
1712.251617	7.956800
1726.231400	7.138500
1710.521533	8.091400
1703.961033	8.548300
1716.073300	7.871100
1722.489433	7.522300
1715.591433	7.946500
1722.025983	7.614700
1725.913683	7.495600
1727.205417	7.431200
1730.455083	7.254100
1724.669133	7.625200
1726.710633	7.508800
1723.835950	7.700100
1718.541817	8.019800
1725.135433	7.649500
1730.493833	7.658800
1728.454850	7.793100
1735.193100	7.426500
1736.634317	7.344800
1722.954050	8.284200
1731.338917	7.853000
1729.658767	7.984100
1735.466317	7.654100
1743.370867	7.216100
1739.954467	7.415900
1744.316233	7.162300
1733.863600	7.765500
1737.948200	7.592700
1736.075500	7.796700
1736.131933	7.812100
1733.619967	7.976000
1739.871200	7.608600
1732.139417	8.100800
1737.135483	7.834300
1737.018567	7.849700
1738.989200	7.862100
1745.568200	7.741800
1747.171333	7.688200
1742.328533	8.027500
1740.708517	8.131400
1743.171000	8.014200
1743.999083	7.982800
1757.709517	7.194500
1753.891383	7.443400
1740.724717	8.453900
1748.723550	8.009400
1752.856700	7.761600
1747.272300	8.110200
1746.343633	8.342200
1747.777333	8.324800
1752.665300	8.032800
1748.867200	8.287500
1759.294383	7.675600
1755.810400	7.888500
1759.281617	7.695200
1756.203100	7.938300
1763.815733	7.501600
1759.287017	7.765100
1754.205700	8.064900
1762.436117	7.573400
1755.421883	7.989700
1751.660300	8.260200
1757.750600	7.966500
1763.881717	7.886900
1763.611450	7.941900
1759.878033	8.236300
1766.319450	7.878600
1772.498033	7.512700
1765.979117	7.894700
1762.386700	8.117100
1766.413000	7.891200
1778.190100	7.411500
1765.931167	8.160200
1767.218217	8.092700
1773.487467	7.735700
1770.527217	7.986800
1768.784050	8.115600
1773.681367	7.837100
1771.646700	7.970700
1764.941400	8.401500
1771.069600	8.055300
1772.549850	8.108700
1772.974917	8.181200
1777.455750	7.945200
1779.276283	7.847500
1776.159183	8.040400
1780.149283	7.825900
1779.781033	7.853200
1780.543017	7.820600
1780.429783	7.930300
1785.298733	7.865800
1784.838750	7.925100
1783.277517	8.029400
1790.357383	7.616800
1783.943867	7.995500
1788.282533	7.742200
1787.109867	7.820600
1789.747583	7.661200
1786.935183	7.987900
1785.798317	8.050400
1786.420783	8.025700
1784.832583	8.122300
1789.070483	7.980100
1789.791517	8.007800
1787.407783	8.184700
1787.268117	8.193200
1798.720767	7.526300
1790.765083	8.025400
1783.964300	8.695200
1791.516583	8.263300
1802.335683	7.643200
1803.524217	7.598600
1796.676700	8.078700
1795.318533	8.276800
1801.405133	7.953400
1796.665700	8.264400
1799.418500	8.123100
1802.697817	7.941200
1802.385633	8.001100
1798.484583	8.449600
1806.496700	8.008800
1805.105717	8.094200
1814.378267	7.551800
1809.253700	8.000400
1807.800333	8.144500
1802.724817	8.470700
1811.829800	7.937700
1807.187950	8.242800
1815.589000	7.747200
1811.854383	8.151700
1809.281750	8.330700
1815.998200	7.945200
1816.880183	7.910500
1814.452617	8.060600
1813.312750	8.143500
1810.543100	8.455800
1803.910583	8.965300
1816.224850	8.284200
1815.504717	8.375300
1819.204150	8.185200
1818.599717	8.231000
1822.447967	8.030600
1825.285333	7.908400
1819.022200	8.299800
1820.805750	8.202900
1818.024400	8.390100
1818.442900	8.403900
1816.408717	8.577800
1822.496167	8.420600
1820.720533	8.578900
1827.728750	8.174400
1822.545200	8.513100
1835.724417	7.732400
1825.521917	8.363000
1834.747367	7.806200
1833.657467	7.892300
1830.123717	8.378000
1839.337833	7.886800
1830.776967	8.399600
1843.333383	7.664200
1833.720050	8.228400
1835.217550	8.132100
1822.327367	8.908700
1827.558700	8.607300
1831.652433	8.542000
1834.155800	8.565600
1845.246283	7.929400
1843.526450	8.021400
1840.534967	8.250800
1844.105917	8.150300
1849.615583	7.849000
1842.753933	8.290000
1838.168933	8.573500
1846.066083	8.092900
1848.310133	7.963000
1844.581083	8.243500
1848.230867	8.063000
1843.720550	8.326200
1840.748583	8.533000
1843.021633	8.409100
1844.345883	8.350600
1848.292283	8.134600
1852.632767	7.898000
1854.996583	8.040100
1855.209133	8.077000
1849.048517	8.445800
1848.353683	8.540800
1858.845633	7.929400
1853.532733	8.242900
1854.784367	8.160200
1852.436783	8.300800
1858.441633	8.286100
1856.188517	8.432300
1856.955300	8.410500
1856.968083	8.406400
1863.001567	8.142200
1863.284317	8.160200
1846.652950	9.193500
1855.982650	8.631600
1863.940050	8.189400
1857.489367	8.591000
1859.520117	8.609000
1866.328667	8.332400
1866.731400	8.338500
1864.465800	8.501100
1863.571617	8.554100
1865.264067	8.474900
1868.616883	8.273500
1870.621200	8.159700
1864.059150	8.585100
1866.998267	8.678000
1871.883383	8.442700
1870.605933	8.527900
1875.358500	8.232600
1864.756033	8.969200
1872.134883	8.560300
1877.857533	8.254600
1879.176817	8.190200
1867.677283	8.912200
1867.579783	8.937100
1882.289233	8.242600
1882.540000	8.281500
1878.248517	8.551100
1870.464600	9.021000
1887.973933	7.989400
1886.657933	8.080000
1881.418800	8.412000
1880.305950	8.472300
1877.833350	8.791200
1881.008267	8.755700
1892.456617	8.078000
1889.692267	8.270900
1889.390083	8.298100
1881.908883	8.784700
1887.141317	8.483000
1886.767367	8.518400
1885.751083	8.632300
1892.438617	8.424200
1896.763433	8.201500
1890.361767	8.598200
1891.439950	8.538600
1891.473683	8.542300
1900.014483	8.024500
1893.959700	8.370000
1891.200917	8.522900
1892.621083	8.567800
1895.584283	8.408500
1892.086283	8.629000
1895.293250	8.481900
1889.190200	8.938200
1895.829300	8.577000
1900.929950	8.349000
1894.568583	8.700400
1906.793200	7.995900
1898.932700	8.454600
1904.733567	8.230100
1911.769000	7.934700
1903.142533	8.462800
1902.444800	8.518800
1903.787117	8.464400
1903.957733	8.456200
1910.447500	8.084400
1908.815200	8.196600
1896.211400	8.970900
1903.873733	8.638600
1904.271033	8.664400
1906.423733	8.547700
1904.313217	8.725100
1902.799183	8.844700
1907.152000	8.591700
1912.822900	8.297100
1910.701200	8.439900
1911.869533	8.654500
1914.427283	8.561500
1919.391583	8.283100
1923.983467	8.039900
1919.988333	8.273500
1923.217933	8.101600
1929.100650	7.761600
1921.226400	8.247000
1922.558567	8.357300
1931.270167	7.975700
1929.030000	8.207400
1931.096317	8.082200
1925.135550	8.450700
1926.824017	8.376200
1932.583850	8.098800
1926.509367	8.582600
1931.656800	8.292600
1927.007633	8.575600
1926.361000	8.625300
1928.404517	8.598200
1928.250750	8.642700
1930.493700	8.512500
1927.494200	8.711700
1925.964667	8.951900
1929.367100	8.796600
1935.001367	8.479100
1936.029117	8.436200
1931.882117	8.721800
1937.099617	8.408300
1937.818000	8.602800
1928.418917	9.213800
1936.295250	8.771700
1927.765483	9.317800
1932.969700	9.030900
1935.779017	8.864900
1941.690783	8.539300
1944.417300	8.370000
1937.361583	9.003400
1943.908350	8.743500
1945.866233	8.647600
1947.280183	8.568100
1946.811967	8.608400
1946.578000	8.613900
1940.559367	8.998700
1944.258233	8.794900
1946.239100	8.718300
1943.537650	9.018000
1950.642033	8.636200
1955.006017	8.389100
1956.998217	8.292200
1950.494133	8.843200
1948.118933	9.009100
1956.677833	8.505700
1956.296917	8.549000
1953.288133	8.886400
1950.528383	9.109600
1956.540167	8.771900
1946.114567	9.425600
1952.186983	9.130900
1959.687250	8.728200
1964.808433	8.459200
1958.189300	8.881800
1957.714717	8.919200
1958.304500	8.900400
1968.526950	8.695200
1959.585867	9.235700
1964.630350	8.963100
1970.482233	8.602600
1966.037750	8.950200
1972.402317	8.670500
1963.209167	9.226400
1978.376067	8.318300
1973.301067	8.621000
1968.146083	8.936500
1966.029267	9.081800
1967.595817	9.006800
1974.716467	8.657000
1981.330567	8.534600
1962.194800	9.700500
1975.585600	8.927700
1982.361100	8.541300
1981.685817	8.734400
1975.157783	9.149800
1975.254167	9.156200
1980.976567	8.819600
1981.206050	8.792400
1977.263033	9.046900
1984.708383	8.629300
1987.212283	8.470000
1984.097350	8.647200
1980.188900	8.877000
1982.437200	8.998500
1986.608383	8.904400
1986.414483	8.926000
1991.234917	8.660000
1989.756767	8.738000
1996.478217	8.337800
1990.930350	8.642700
1991.434250	8.617800
1990.300450	8.705700
1983.694400	9.088200
1996.515100	8.340000
1983.506900	9.106200
1978.317850	9.486300
1992.476050	9.030900
1990.607567	9.141800
1997.940883	8.743900
1990.966883	9.167200
1997.841300	8.902500
1993.043300	9.228600
1994.107333	9.187600
1998.482417	8.926700
2001.827550	8.766900
2000.803750	8.812800
2006.762350	8.492400
2009.066300	8.351700
2009.231567	8.310800
2003.095317	8.706200
2001.940917	9.156800
2000.808200	9.240000
2003.695333	9.093100
2005.551067	8.992400
2005.971017	9.068000
2011.027000	8.845800
2011.225200	8.838300
2012.804517	8.743700
2015.726500	8.578200
2013.878133	8.696500
2006.394133	9.169000
2004.148583	9.303100
2008.896217	9.104300
2003.405483	9.695500
2013.337383	9.128800
2015.424233	9.036400
2017.511000	8.934000
2010.820983	9.329800
2009.307617	9.440000
2016.338367	9.040100
2002.676633	9.873400
2026.470467	8.800100
2022.400367	9.048200
2022.675917	9.039500
2022.297100	9.069300
2017.855400	9.420600
2020.880883	9.268300
2025.071300	9.035100
2020.409167	9.316100
2026.117400	9.005100
2022.732817	9.236000
2029.210633	8.975800
2027.769633	9.194500
2029.436517	9.120800
2029.654183	9.135100
2028.601150	9.202800
2030.568967	9.094400
2035.186400	8.827500
2022.530117	9.591200
2025.646917	9.543500
2036.926717	9.080900
2039.730000	8.937300
2039.335650	8.965500
2033.767317	9.289400
2036.811567	9.099500
2031.619150	9.421800
2035.113017	9.228500
2029.336600	9.608700
2035.388533	9.569800
2046.608883	8.926000
2043.719150	9.085200
2042.793933	9.147700
2048.781550	8.957400
2041.628350	9.407400
2033.622800	9.904200
2037.269600	9.703500
2040.672533	9.652900
2045.910800	9.410100
2042.863250	9.618300
2047.539350	9.334500
2050.462033	9.177700
2053.264967	9.011600
2057.225417	8.848100
2055.323617	9.093800
2053.752817	9.207800
2052.925417	9.270200
2050.889117	9.437600
2052.450167	9.378500
2053.004683	9.362200
2059.857833	8.944600
2057.970683	9.103600
2056.975233	9.427000
2049.659450	9.903600
2053.550183	9.706600
2058.613517	9.423200
2063.041100	9.183600
2063.140783	9.179500
2061.423183	9.295600
2057.183600	9.550800
2072.466417	8.910200
2076.150433	8.769400
2064.760183	9.470800
2069.877917	9.165800
2074.728683	8.905000
2070.015733	9.174100
2072.280533	9.015100
2070.463267	9.144200
2069.556067	9.391400
2078.350817	9.018800
2075.525833	9.205000
2072.272200	9.396300
2072.402817	9.440000
2077.459617	9.245600
2082.003833	8.990200
2077.889383	9.240700
2081.705183	8.996200
2078.172217	9.215300
2074.179817	9.504500
2076.055283	9.565300
2077.344083	9.517900
2078.258650	9.475500
2078.958817	9.442100
2084.013917	9.158900
2084.146400	9.171300
2084.932450	9.131700
2090.608317	8.806100
2082.019950	9.590100
2081.382850	9.719700
2089.246300	9.291900
2078.679100	9.951600
2087.227217	9.465500
2095.458517	8.982500
2077.302167	10.081100
2091.465250	9.225300
2080.147383	10.043200
2089.177017	9.491300
2089.312417	9.480500
2089.721300	9.477600
2086.633967	9.784700
2094.493533	9.371800
2097.354233	9.188200
2098.026533	9.187000
2095.728833	9.337000
2096.786500	9.303600
2096.877283	9.350800
2088.013117	9.965000
2093.286317	9.691700
2094.560333	9.643900
2104.366317	9.070400
2104.790217	9.062300
2100.724533	9.314800
2097.350667	9.540800
2101.265683	9.359200
2100.192183	9.707500
2109.923667	9.175100
2105.369483	9.454000
2105.418800	9.476700
2112.052200	9.087300
2111.805267	9.104300
2108.575917	9.302300
2110.159800	9.215400
2099.869167	10.181300
2110.904600	9.540300
2116.527717	9.222800
2118.643700	9.119400
2114.486100	9.436500
2117.274700	9.278700
2111.031667	9.678500
2105.309633	10.033600
2119.108617	9.419000
2116.086800	9.612000
2116.144700	9.653700
2110.502083	9.989800
2118.429567	9.558200
2120.046567	9.614600
2125.104300	9.331200
2127.383983	9.206800
2126.728017	9.257600
2126.999300	9.238200
2124.818417	9.408500
2124.155300	9.649800
2124.167100	9.658800
2128.485467	9.419600
2127.610883	9.492400
2125.000367	9.721400
2127.148350	9.631200
2127.539233	9.622000
2128.405017	9.592100
2130.578717	9.480500
2124.462117	9.865400
2134.641717	9.296600
2135.299817	9.260600
2132.467333	9.449800
2131.809317	9.493100
2145.898233	9.017800
2139.005700	9.456000
2135.991900	9.664500
2138.442683	9.531100
2129.749717	10.221500
2130.820300	10.183500
2142.100467	9.539000
2133.537850	10.074600
2136.210767	9.989300
2142.293067	9.727400
2150.838117	9.227600
2151.850633	9.198100
2145.189367	9.628100
2150.062050	9.514200
2152.260983	9.403300
2145.680783	9.815800
2145.571900	9.834900
2153.982367	9.418400
2149.592400	9.689100
2158.386967	9.180200
2158.378133	9.193900
2153.143633	9.500800
2144.732300	10.013400
2140.881183	10.261300
2147.007183	9.891700
2145.404850	10.306500
2146.217833	10.296700
2155.489467	9.784100
2164.046067	9.278600
2159.208700	9.670800
2160.313383	9.683200
2168.311583	9.251200
2161.167267	9.662900
2162.154267	9.603500
2162.156267	9.616700
2160.048300	9.783900
2154.431633	10.316800
2151.732233	10.510000
2158.330567	10.150700
2166.380050	9.667500
2162.609983	9.929500
2167.759500	9.624300
2171.192383	9.432700
2167.830717	9.632300
2171.302467	9.425600
2176.515683	9.171400
2171.262567	9.809000
2173.279817	9.705200
2179.521717	9.354200
2174.849617	9.648200
2168.338567	10.192400
2177.145400	9.707100
2177.657983	9.687400
2187.198367	9.124700
2179.604233	9.595600
2174.021600	9.925200
2181.271333	9.490000
2173.969933	9.940600
2186.734050	9.516900
2178.276017	10.004900
2183.462550	9.696600
2182.913850	9.735900
2179.379867	10.046300
2176.835917	10.297700
2179.749233	10.154800
2181.771917	10.041200
2190.660000	9.536400
2190.332017	9.572900
2184.783333	9.913000
2187.015033	9.779200
2184.014683	10.009900
2189.164917	9.959900
2187.986200	10.079100
2198.236467	9.469700
2189.087367	10.020800
2191.360250	9.915000
2192.624417	9.842600
2188.999817	10.062800
2193.962333	9.787000
2188.462050	10.137600
2189.616950	10.070100
2189.166467	10.105400
2185.723000	10.330200
2195.293767	9.771200
2194.189883	9.818200
2199.859767	10.048400
2205.159450	9.728700
2203.388883	9.868000
2209.450700	9.499800
2205.213733	9.864400
2199.776583	10.273600
2209.157133	9.736900
2204.345867	10.037300
2212.058867	9.613100
2204.616400	10.040400
2209.237950	9.779400
2206.677100	9.936300
2208.816700	9.836700
2215.206917	9.582800
2214.978883	9.619000
2216.828567	9.506900
2212.491550	9.841800
2220.801317	9.485000
2219.629750	9.566700
2215.977183	9.789700
2219.166900	9.606900
2215.539867	9.823400
2224.119050	9.327000
2213.263683	9.980200
2213.162417	10.006400
2215.409567	9.884300
2217.336333	9.772600
2222.850117	9.847400
2221.927467	9.917300
2219.042950	10.125900
2215.345900	10.388700
2223.021983	9.972700
2220.394900	10.170000
2219.965467	10.222700
2223.796450	10.031400
2214.303000	10.642500
2224.285350	10.065000
2232.574767	9.592100
2229.086733	9.807100
2229.413483	10.142800
2231.509817	10.016300
2229.673650	10.163100
2232.767067	10.034600
2229.420333	10.266100
2234.665100	10.009200
2239.636867	9.721100
2235.764800	9.964500
2238.267350	9.831600
2236.996117	10.082000
2240.117367	9.920600
2237.353233	10.117600
2235.991650	10.203900
2246.130217	9.750500
2243.745783	9.951700
2243.337733	10.021600
2238.958983	10.275400
2242.546883	10.072900
2245.382300	9.910500
2245.360750	10.014300
2239.269967	10.398500
2238.592417	10.469300
2239.559733	10.445800
2236.449950	10.699800
2247.906367	10.100300
2243.725433	10.376200
2245.736583	10.275100
2246.751783	10.238800
2248.180767	10.196300
2241.558950	10.585800
2250.457967	10.075400
2248.531550	10.209000
2253.079483	9.931900
2256.414767	9.754700
2251.907283	10.372600
2253.838067	10.318700
2266.338050	9.590700
2250.844683	10.528300
2257.045967	10.310000
2261.296967	10.073900
2264.837167	9.875000
2263.332033	9.956800
2270.648633	9.525700
2260.700867	10.118600
2263.438650	9.961200
2269.581117	9.602900
2266.022533	10.123900
2270.539050	9.878100
2263.293917	10.333100
2259.250200	10.587600
2267.726117	10.238600
2267.049750	10.319700
2263.930817	10.528700
2272.906317	10.015700
2279.158950	9.660300
2270.649900	10.137300
2261.381867	10.709300
2263.908550	10.571700
2264.525933	10.568500
2272.485850	10.110000
2276.106683	10.004500
2278.395567	10.158200
2275.353017	10.355900
2278.216550	10.207200
2278.086250	10.230900
2276.151700	10.370100
2268.063133	10.888900
2282.118750	10.135500
2285.761617	9.938300
2282.480517	10.160900
2277.834700	10.451400
2284.348900	10.135800
2283.464033	10.182700
2292.068017	9.690200
2294.259750	9.588300
2284.598517	10.171700
2284.959183	10.153300
2283.207517	10.451600
2287.110050	10.270800
2286.980683	10.369600
2285.576483	10.472200
2283.518533	10.623100
2289.816617	10.263500
2289.917250	10.279200
2289.146433	10.339000
2288.583633	10.447000
2282.006733	10.902400
2286.161533	10.666600
2291.322367	10.373600
2292.670567	10.314200
2292.051717	10.375700
2291.406900	10.419600
2292.644850	10.381500
2291.715167	10.502300
2294.572817	10.716500
2289.569583	11.070700
2295.887933	10.803700
2296.375517	10.786700
2296.934717	10.829600
2300.466750	10.653300
2294.446133	11.026600
2297.721950	10.845600
2306.921633	10.323100
2300.423833	10.698100
2314.564250	10.020900
2310.857517	10.276400
2308.755900	10.385700
2311.397233	10.245100
2300.913767	10.871900
2303.179600	10.742100
2305.160250	10.633200
2309.723483	10.357000
2308.693933	10.585300
2308.851333	10.751200
2310.886517	10.643300
2313.269300	10.523100
2316.836733	10.345000
2312.919283	10.567000
2325.171633	9.844900
2314.750767	10.463300
2313.695417	10.529000
2317.750800	10.429800
2311.712050	10.838400
2311.469983	10.906000
2309.526817	11.052200
2318.793617	10.536500
2324.462517	10.229000
2330.792400	10.076700
2323.141050	10.563300
2325.680667	10.423700
2332.476617	10.028900
2320.881167	10.844000
2328.230667	10.455200
2330.296233	10.340500
2329.603200	10.410300
2322.760000	10.828200
2323.126167	10.806800
2324.594750	10.737300
2325.935300	10.650000
2326.610967	10.617500
2331.445800	10.329000
2328.212367	10.658300
2332.526567	10.449800
2329.006967	10.677800
2329.943033	10.652500
2328.728650	10.752600
2335.475067	10.392800
2338.931317	10.181000
2329.865017	10.762400
2329.061367	10.827500
2336.624000	10.542600
2339.265317	10.430900
2339.352950	10.593900
2341.533533	10.485100
2328.894883	11.315800
2340.506600	10.632900
2339.523683	10.717300
2342.664100	10.572900
2350.328050	10.339500
2346.653417	10.591100
2350.599700	10.389300
2342.489850	10.877100
2346.105517	10.698800
2349.485083	10.500100
2339.378483	11.126800
2345.073150	10.807200
2355.921650	10.445700
2358.692233	10.370500
2356.461733	10.525000
2345.031817	11.201000
2355.437800	10.593900
2355.381233	10.605400
2353.881467	10.705100
2352.339267	10.833500
2351.318317	10.991300
2347.815800	11.313600
2353.868250	11.025900
2360.652517	10.650500
2352.366967	11.198600
2354.269667	11.236700
2358.774450	11.002200
2358.852983	11.022400
2357.475117	11.135300
2362.010183	10.892500
2359.755483	11.055400
2363.348817	11.071700
2357.886317	11.434700
2366.604500	10.952100
2374.533583	10.488100
2365.585417	11.024000
2366.055317	11.019500
2364.952750	11.103600
2369.456567	10.843400
2369.941767	10.834400
2373.120583	10.669900
2382.061750	10.410300
2382.133150	10.490100
2376.798417	10.810700
2377.241133	10.789000
2373.112300	11.021400
2372.826067	11.062400
2383.965750	10.562400
2379.656750	10.846200
2378.381317	10.950500
2388.079683	10.411600
2386.159083	10.623700
2385.056250	10.799400
2386.157683	10.757200
2391.368633	10.455400
2392.842267	10.372700
2389.820017	10.588100
2392.189700	10.482000
2396.510250	10.451400
2394.875983	10.569400
2396.142833	10.478500
2393.654750	10.645500
2386.321967	11.255600
2391.652767	11.014700
2394.616317	10.875500
2388.237483	11.258500
2383.231883	11.710300
2398.690217	10.789700
2392.643900	11.172300
2395.574800	11.019000
2398.757150	10.976400
2404.369950	10.734600
2396.171150	11.246700
2412.510750	10.300200
2407.826383	10.569400
2407.041917	10.611200
2412.478167	10.282700
2397.862483	11.137600
2405.382067	10.786700
2406.767133	10.955500
2411.508533	10.698100
2412.203467	10.677800
2414.447733	10.538200
2419.794583	10.223200
2410.625817	10.751900
2413.805317	10.559300
2411.452383	10.741600
2411.506400	10.867500
2411.420067	10.914200
2416.146967	10.654100
2413.623017	10.820600
2411.405217	11.032400
2411.192017	11.088200
2412.423517	11.051000
2404.288717	11.568800
2416.914033	10.864000
2416.623717	10.889600
2423.776783	10.662400
2422.663033	10.814200
2420.412433	10.996000
2421.161983	10.965400
2408.749233	11.779300
2426.390150	10.683900
2422.658533	10.924300
2422.312150	10.956300
2422.419683	11.171500
2415.402533	11.758300
2424.696750	11.244300
2419.784617	11.607200
2423.803100	11.390400
2427.496250	11.196000
2429.641167	11.125100
2428.719483	11.213500
2428.329383	11.271400
2429.904900	11.274000
2432.780633	11.109400
2434.755000	11.016300
2441.314517	10.644800
2436.077117	11.080700
2438.553550	10.948800
2442.301450	10.817700
2439.865383	10.978000
2442.317117	10.853000
2442.073083	10.899100
2436.881050	11.354700
2439.405650	11.237100
2439.617967	11.320700
2446.006367	10.980500
2439.227550	11.414100
2440.748850	11.341500
2451.509100	10.898100
2447.180700	11.191200
2453.480433	10.826800
2454.924800	10.750500
2454.353117	10.868600
2453.012733	10.997800
2437.154883	11.999500
2446.811583	11.419300
2448.724700	11.333400
2444.635200	11.604000
2451.399100	11.307900
2454.623833	11.217700
2446.594433	11.722600
2449.766000	11.576700
2455.125133	11.315500
2456.309100	11.381400
2460.229483	11.167300
2458.823717	11.319500
2464.261850	11.011500
2470.698717	10.656800
2473.708483	10.471900
2469.262217	10.747700
2469.257400	10.762500
2464.093250	11.242200
2469.213300	10.932000
2473.648367	10.677800
2470.865400	10.836600
2470.119217	10.958900
2465.482117	11.274500
2470.786100	11.081700
2470.845000	11.067300
2468.088483	11.255500
2470.695333	11.097400
2466.503083	11.451100
2472.178417	11.214800
2474.686933	11.102200
2476.692417	11.039000
2476.788650	11.067600
2475.688133	11.152900
2478.025567	11.057900
2480.302750	11.044200
2480.533283	11.035300
2479.998100	11.111400
2479.616350	11.137500
2478.845500	11.315400
2470.043950	11.880900
2483.347117	11.161700
2484.844517	11.087600
2481.759750	11.290200
2485.617950	11.057100
2487.982917	10.997000
2487.777367	11.048900
2483.704567	11.349200
2486.750900	11.210700
2485.048900	11.356200
2489.122667	11.122700
2496.954600	10.686600
2484.963333	11.476300
2480.670300	11.753400
2490.812783	11.172100
2488.093317	11.419400
2499.087817	10.875800
2494.016100	11.201400
2492.837733	11.352400
2499.882483	10.926100
2506.230433	10.569400
2498.564533	11.139400
2494.152317	11.449100
2497.491617	11.288000
2497.936967	11.338100
2501.746533	11.139400
2498.718217	11.327600
2494.583283	11.600200
2492.997500	11.761800
2508.453567	10.849100
2501.217450	11.293200
2497.741017	11.504300
2494.999700	11.811900
2493.678283	11.932000
2505.051283	11.361400
2504.210367	11.433800
2503.747050	11.538000
2507.602633	11.302000
2507.986533	11.380600
2506.935450	11.538600
2509.953550	11.405100
2510.646750	11.416800
2508.157117	11.586200
2518.637900	10.990800
2517.671467	11.110100
2509.117150	11.740800
2515.549333	11.382100
2514.921783	11.439400
2513.290833	11.603200
2518.238717	11.448200
2516.745817	11.559800
2525.565017	11.115500
2521.434650	11.373600
2527.545917	11.023100
2526.582733	11.103100
2521.907017	11.522300
2529.178333	11.139400
2529.329100	11.205300
2520.602433	11.744500
2523.464717	11.581100
2525.743617	11.447300
2528.437233	11.370100
2536.264500	10.911900
2521.761250	11.802000
2528.937767	11.378000
2535.425733	11.112700
2534.227183	11.249500
2528.999517	11.595200
2536.616267	11.195300
2535.631300	11.280300
2540.090383	11.022100
2529.940383	11.684800
2524.811850	12.111000
2529.749733	11.859400
2534.761417	11.600900
2527.167000	12.068100
2532.221550	11.785200
2531.950667	11.805500
2536.542550	11.596200
2537.827200	11.512500
2533.029050	11.809800
2531.097450	11.934000
2534.230850	11.831700
2539.702250	11.525400
2525.717600	12.438600
2537.020033	11.801500
2543.246783	11.482000
2550.663133	11.062900
2542.632217	11.685500
2547.061083	11.491900
2551.226133	11.342200
2550.232967	11.392400
2550.974767	11.353100
2548.381433	11.528200
2559.683117	11.045000
2553.082833	11.471800
2551.144100	11.620500
2547.376067	11.845700
2546.864333	11.926900
2558.194350	11.389800
2561.699783	11.224000
2553.969983	11.785900
2562.776550	11.269200
2557.030750	11.649000
2562.906150	11.292000
2560.695133	11.595700
2563.541200	11.449200
2569.770783	11.109400
2561.742117	11.596700
2571.422367	11.025200
2572.696817	10.920500
2565.161717	11.502800
2558.117917	11.970200
2571.473133	11.219800
2563.887400	11.691600
2560.208167	12.024500
2567.796600	11.625600
2562.520433	12.020500
2564.913800	11.874900
2564.660917	11.936600
2569.189433	11.671600
2579.086333	11.143600
2575.214517	11.460500
2567.857950	11.924400
2569.055917	11.907800
2571.143450	11.789100
2568.037483	12.013300
2574.067750	11.693700
2574.959300	11.800200
2581.836783	11.409700
2578.722333	11.622700
2585.351250	11.244300
2578.666050	11.782200
2583.437150	11.527500
2576.052717	12.048500
2584.574850	11.542200
2581.459417	11.774000
2583.981350	11.610600
2595.392550	11.060400
2585.171917	11.681600
2581.067633	12.005500
2587.639017	11.632400
2588.846233	11.578300
2582.206550	12.004800
2585.173850	11.942700
2585.169367	12.011600
2584.713333	12.052000
2585.021500	12.054300
2587.382350	11.973300
2595.727300	11.559000
2592.763567	11.753900
2585.921133	12.221800
2597.286550	11.556300
2594.204767	11.744300
2588.042650	12.161400
2591.701233	12.070900
2593.941550	11.977800
2600.140817	11.662100
2601.054717	11.602700
2597.503883	11.809600
2601.861983	11.540800
2604.932200	11.526300
2606.264583	11.458000
2606.060700	11.466900
2601.531233	11.741800
2601.316850	11.774400
2606.330267	11.501000
2607.658767	11.641100
2610.562750	11.473200
2603.093133	11.931400
2610.822600	11.473800
2604.092083	11.923300
2607.882483	11.749600
2613.799567	11.438300
2613.753700	11.452800
2611.928150	11.559000
2615.677133	11.350600
2612.120367	11.742500
2613.844517	11.681600
2615.388583	11.614300
2610.248133	11.925400
2607.965183	12.094000
2612.870800	11.954100
2615.372383	11.834500
2621.231850	11.527500
2619.970433	11.620300
2609.604983	12.281500
2610.785283	12.235600
2617.857017	11.968100
2614.464550	12.194700
2619.198700	11.954400
2625.677617	11.582600
2621.128600	11.962800
2623.475950	11.836500
2622.965400	11.917500
2620.152283	12.103000
2619.405683	12.204100
2619.665000	12.239700
2640.742567	11.049500
2634.075767	11.458700
2618.889067	12.528200
2631.942367	11.795000
2628.464083	12.013000
2637.309000	11.505900
2628.251433	12.233800
2636.675283	11.768800
2640.963867	11.522900
2633.179483	11.996500
2630.144167	12.251300
2631.986683	12.263200
2639.796800	11.840700
2642.612350	11.720100
2645.243600	11.566200
2630.715367	12.436100
2641.160050	11.856900
2637.917483	12.211300
2641.118833	12.062500
2645.420400	11.836500
2644.006033	11.914000
2648.604450	11.633400
2638.543567	12.251300
2645.085000	11.933700
2643.544333	12.054400
2644.092250	12.076500
2649.818817	11.756600
2652.033917	11.646800
2650.090833	11.761300
2654.133633	11.726800
2661.466767	11.265200
2645.409983	12.254800
2654.935150	11.683500
2658.040467	11.590400
2654.767200	11.908800
2653.884800	11.994300
2649.581033	12.313600
2652.393167	12.173300
2652.920850	12.154800
2651.496100	12.319800
2657.981683	12.050800
2666.649450	11.542500
2661.537583	11.898100
2658.871050	12.063300
2657.735817	12.166100
2664.208983	11.828200
2661.742283	12.031000
2664.715350	11.874300
2671.769333	11.452600
2664.698233	11.903800
2662.104233	12.203200
2670.585533	11.748400
2662.492783	12.286300
2666.452767	12.071900
2673.744417	11.653400
2667.216683	12.042700
2667.198517	12.177200
2665.469583	12.355600
2660.209850	12.733800
2671.222750	12.135300
2674.463917	11.972900
2667.976767	12.371000
2676.036683	11.937400
2678.585817	11.924000
2678.739633	11.913700
2679.325083	11.902900
2687.755050	11.411400
2686.988167	11.522900
2676.629617	12.147200
2669.420600	12.652800
2678.884200	12.099600
2673.163100	12.482100
2676.918650	12.282000
2676.884433	12.461800
2677.915933	12.459700
2669.624450	13.074000
2680.448300	12.452100
2676.130500	12.757800
2678.477517	12.615200
2682.388183	12.514300
2677.322533	12.893200
2680.629583	12.773200
2690.890100	12.149700
2690.946400	12.150900
2691.615567	12.121700
2691.688800	12.173700
2694.562900	12.106200
2689.776583	12.423700
2691.097233	12.356800
2693.856617	12.178700
2701.270517	11.747000
2693.442217	12.219800
2702.137767	11.719100
2690.962217	12.467000
2699.953233	12.184300
2695.152217	12.506300
2699.113617	12.293900
2698.520017	12.331700
2705.438650	12.076500
2700.409817	12.410900
2700.454300	12.411900
2696.005017	12.661700
2694.263250	12.800700
2701.038267	12.394700
2695.212167	12.806600
2697.554950	12.702900
2707.743517	12.240800
2700.952100	12.663900
2702.318200	12.588600
2699.782750	12.762000
2692.707750	13.256100
2700.373267	12.869600
2699.664200	12.947700
2698.007883	13.066900
2705.631500	12.663900
2705.221617	12.708500
2709.212150	12.477600
2711.487267	12.367700
2720.563033	11.905900
2717.886317	12.272900
2719.453133	12.226600
2718.972183	12.277000
2712.005567	12.698600
2711.193417	12.785300
2717.313217	12.425900
2713.651067	12.659900
2723.490350	12.091500
2720.015983	12.620800
2725.508850	12.322500
2723.133233	12.484600
2729.074750	12.140100
2733.115717	12.088700
2725.623400	12.533400
2729.514600	12.329100
2728.092600	12.423300
2729.497150	12.471600
2726.798567	12.690800
2740.992567	11.875100
2730.628533	12.509500
2724.657100	12.877800
2731.274967	12.483200
2736.580217	12.189200
2731.413383	12.515200
2735.337150	12.295200
2725.709883	12.868600
2734.447567	12.423500
2739.139750	12.256200
2734.871917	12.543500
2742.571900	12.103200
2743.070217	12.107900
2735.975733	12.672700
2742.793417	12.285800
2744.257567	12.232100
2739.584483	12.545800
2739.919433	12.541900
2736.458650	12.771000
2738.694450	12.658200
2729.152133	13.253500
2742.177450	12.823800
2735.242000	13.260300
2740.441200	12.969900
2754.446600	12.159300
2749.616283	12.573700
2757.659067	12.119600
2759.259800	12.043500
2751.438733	12.522100
2750.722250	12.602700
2750.734067	12.614000
2752.009100	12.552900
2752.443500	12.538200
2747.826050	12.825000
2752.656883	12.550600
2753.513950	12.856200
2755.701267	12.758300
2754.470183	12.856000
2764.743033	12.269500
2760.673500	12.594000
2765.693200	12.411900
2757.495450	12.923400
2761.079083	12.730600
2769.550517	12.243200
2763.799950	12.586200
2760.084600	12.816900
2762.165983	12.701200
2762.332100	12.716400
2765.809917	12.661700
2760.258517	13.026200
2761.844683	12.976300
2763.084450	12.929100
2770.050600	12.543300
2774.467317	12.290600
2772.840067	12.392900
2773.968700	12.333000
2771.466000	12.803100
2769.951417	12.933800
2767.634700	13.103100
2768.952783	13.048000
2776.626333	12.702400
2770.073917	13.186700
2772.195650	13.122000
2774.760767	12.954800
2782.214833	12.526300
2783.058983	12.498700
2777.691417	12.870200
2779.876267	12.923300
2778.710150	13.028400
2783.547200	12.757500
2785.172217	12.675800
2785.421700	12.669300
2785.056167	12.719900
2786.026083	12.659800
2783.049767	12.886700
2793.947367	12.519500
2791.990450	12.674400
2793.615917	12.593300
2789.772050	12.820200
2792.966483	12.656200
2796.797650	12.431100
2794.691833	12.755500
2793.649833	12.875500
2800.157433	12.486700
2799.740183	12.529600
2801.428433	12.426100
2802.012233	12.405700
2802.431833	12.400300
2802.556133	12.400300
2804.717733	12.478900
2798.972533	12.961900
2801.926950	12.754800
2799.479317	12.953000
2794.562400	13.284600
2796.879317	13.171400
2803.697033	12.812200
2802.893967	12.939500
2800.968917	13.083800
2798.571000	13.252800
2809.876050	12.625500
2801.862850	13.142400
2814.640917	12.415400
2808.453883	12.886000
2802.272167	13.267400
2808.201800	12.928800
2811.269633	12.772300
2815.979917	12.709400
2824.052617	12.251300
2820.828017	12.464000
2814.007667	12.885500
2810.843483	13.083700
2819.324900	12.614100
2806.742283	13.370200
2817.948800	12.724800
2815.872933	12.858100
2808.754467	13.316600
2820.817600	12.902400
2816.540150	13.300800
2818.713983	13.190200
2817.946317	13.238000
2830.665250	12.492600
2830.240667	12.512900
2825.667817	12.854000
2829.149817	12.780800
2826.946700	12.955800
2835.113000	12.500400
2834.623200	12.640200
2839.473367	12.424700
2839.306100	12.435900
2830.218467	13.001300
2827.570867	13.177700
2827.346250	13.199100
2830.611833	13.066300
2836.160950	12.917700
2830.565117	13.266200
2829.864483	13.321900
2830.387933	13.310800
2834.426050	13.080000
2835.024717	13.059800
2827.718267	13.518800
2832.552283	13.238200
2830.213250	13.396500
2831.034717	13.361900
2835.438433	13.442200
2839.947317	13.256300
2841.426033	13.188400
2849.720100	12.690300
2849.388217	12.718100
2844.912133	12.996100
2836.483567	13.754900
2842.619150	13.384200
2851.391850	12.888300
2849.800867	13.004300
2849.772650	13.111500
2852.360500	13.021500
2852.141950	13.051200
2856.582883	12.768100
2851.450583	13.099600
2854.898700	12.909300
2851.756450	13.246200
2858.456517	12.971600
2865.560067	12.591800
2865.099583	12.656500
2867.448583	12.523300
2860.378783	12.943600
2862.409333	12.841600
2862.756333	12.816100
2855.497783	13.333900
2856.897200	13.422000
2860.833000	13.218600
2864.650367	13.025900
2865.478800	12.967500
2861.460933	13.228000
2858.771333	13.395400
2870.735650	12.711600
2863.155817	13.157900
2863.688483	13.267000
2865.391800	13.217100
2873.488300	12.777300
2871.360583	12.910600
2861.841850	13.505400
2873.633400	12.857100
2877.352267	12.810800
2869.959617	13.299800
2879.491533	12.729400
2871.188433	13.234300
2868.125283	13.550500
2871.937067	13.379900
2869.518267	13.552100
2883.536650	12.716400
2882.235150	12.807300
2878.837933	13.006600
2874.045000	13.296300
2888.994983	12.406000
2886.876767	12.584000
2878.274933	13.383100
2882.769183	13.144900
2880.229800	13.332300
2877.212967	13.533200
2876.291167	13.631600
2890.915550	12.750000
2878.057583	13.535800
2879.544667	13.471100
2888.711800	13.243200
2886.109933	13.414900
2892.237467	13.065800
2895.104850	12.894000
2890.157150	13.274700
2887.119150	13.510800
2888.973600	13.448700
2893.644200	13.175100
2893.373300	13.220100
2890.756667	13.402100
2889.643700	13.677900
2894.217083	13.483600
2893.483217	13.564700
2900.301067	13.182800
2903.790150	13.020900
2911.878650	12.682800
2900.247417	13.375700
2897.831750	13.529700
2905.888733	13.066000
2906.369483	13.193500
2907.729667	13.104500
2906.726767	13.174400
2903.329150	13.408200
2909.823867	13.086200
2911.309867	13.005800
2905.592533	13.427500
2908.067933	13.306300
2911.503483	13.130500
2905.192300	13.527300
2903.063267	13.686500
2908.012400	13.407000
2913.663717	13.065500
2911.909800	13.181400
2915.235550	13.171800
2913.658267	13.337000
2909.726317	13.591400
2919.095283	13.059700
2918.149250	13.132500
2914.756833	13.345900
2916.327567	13.241600
2906.524933	13.840900
2908.671700	14.186700
2916.871267	13.722500
2929.120133	13.035400
2923.121883	13.388200
2921.859333	13.522300
2929.717117	13.189100
2929.298467	13.219700
2938.320917	12.682100
2927.012400	13.405200
2937.320183	12.946300
2929.063000	13.454400
2926.666867	13.605200
2927.482667	13.569800
2924.680683	13.760800
2932.339133	13.315300
2935.935317	13.093100
2924.948183	13.758400
2925.309817	13.768700
2929.385683	13.540000
2931.332317	13.845800
2932.428617	13.781000
2931.759833	13.838800
2934.104700	13.719900
2940.880667	13.443200
2942.508750	13.411800
2937.090917	13.803800
2947.769267	13.167200
2942.026117	13.531100
2939.614250	13.675500
2939.940150	13.721400
2944.132567	13.522700
2948.748083	13.245100
2941.031700	13.738800
2935.082333	14.129800
2948.842550	13.404600
2950.232700	13.334400
2947.298800	13.640400
2948.316783	13.588300
2943.792817	13.915700
2947.137067	13.723700
2959.163033	13.167400
2942.638083	14.183200
2951.553600	13.742100
2954.090500	13.614300
2957.821783	13.414900
2949.652567	13.905800
2950.537350	14.055600
2945.701050	14.348700
2950.232117	14.132000
2960.306500	13.546500
2962.707017	13.529000
2957.366383	13.940200
2962.392217	13.712900
2958.591900	13.958100
2944.714800	14.828400
2961.637250	13.825500
2960.208417	13.967900
2965.657767	13.790600
2969.770083	13.604500
2952.923833	14.637100
2960.692800	14.208900
2967.963017	13.799900
2973.999050	13.495200
2971.918217	13.739600
2973.154983	13.693300
2979.377533	13.336600
2975.649917	13.590800
2976.797533	13.618900
2977.359117	13.607300
2972.100033	14.052700
2969.352217	14.221700
2971.128350	14.151300
2977.736417	13.767500
2990.455717	13.097000
2982.829383	13.603300
2982.208900	13.694700
2980.243817	13.806200
2986.981333	13.427500
2978.487033	13.949500
2988.322883	13.423600
2991.637483	13.225000
2985.429183	13.636000
2992.530083	13.243900
2988.225900	13.548900
2987.457133	13.659700
2982.632800	14.005200
2992.260000	13.457700
2983.390100	14.006400
2988.530400	13.740900
2995.063000	13.436700
2998.970633	13.300300
2997.114983	13.433500
2990.082100	13.917600
2992.894900	13.773000
2989.874367	13.977200
2988.661567	14.087900
2997.385300	13.732500
2996.535033	13.797100
3003.742517	13.346900
3000.912550	13.524300
2999.907500	13.716000
3005.317867	13.427900
2999.436650	13.822500
3006.103400	13.435800
2985.555700	14.706000
2989.986167	14.476700
2990.469433	14.536300
3002.398950	13.861200
3010.676700	13.440900
3008.550283	13.597300
3002.028767	14.009600
3001.737950	14.024700
3004.887967	14.016800
3008.462667	13.859600
3006.418500	14.013600
3014.098250	13.587900
3013.467550	13.692600
3013.241300	13.780200
3018.657583	13.484800
3011.962150	13.968900
3023.265467	13.297700
3015.650550	13.764900
3011.065433	14.080900
3018.744133	13.748800
3014.351367	14.044400
3016.376867	13.990700
3017.352317	13.937600
3022.594167	13.628600
3020.379833	13.770700
3014.417450	14.129700
3009.499650	14.451600
3014.788500	14.157000
3017.632783	13.971700
3015.828817	14.261900
3027.347133	13.646500
3009.578800	14.787300
3018.244000	14.293800
3016.638767	14.416400
3023.587867	14.019500
3024.123483	14.092000
3025.744150	14.091600
3027.364150	14.054700
3022.829317	14.364500
3029.321667	13.988600
3029.785417	14.001200
3030.337133	14.051800
3021.339417	14.715800
3037.735433	13.778800
3034.390733	13.982200
3027.707033	14.416300
3039.064217	13.814900
3036.457400	13.985700
3034.038250	14.146200
3037.416667	13.954400
3038.587700	13.903500
3029.216717	14.486600
3040.029783	14.026600
3042.010917	13.951400
3055.103667	13.245200
3039.003950	14.242200
3033.042033	14.620000
3035.916917	14.478500
3035.707850	14.716500
3047.602800	13.986000
3045.758900	14.136000
3041.935033	14.378800
3046.120867	14.182400
3048.109083	14.200600
3051.198467	14.061200
3050.146533	14.159800
3048.543533	14.276500
3049.582517	14.226200
3051.232567	14.145200
3051.747050	14.184600
3057.405517	13.896500
3050.103167	14.399900
3048.964933	14.470300
3055.963300	14.084700
3052.051083	14.333200
3059.646000	14.043900
3065.169083	13.747300
3060.154433	14.124400
3063.717067	13.907900
3062.761083	13.986700
3058.567633	14.267500
3067.328183	13.954900
3062.330483	14.266600
3061.558333	14.335600
3057.266783	14.601700
3061.241167	14.608100
3072.764667	13.905500
3061.715383	14.601100
3066.378583	14.311900
3064.565617	14.454200
3060.950517	14.737400
3062.914367	14.654300
3062.702817	14.704100
3072.009900	14.180700
3062.890950	14.763000
3071.312183	14.292400
3072.360800	14.230800
3076.652133	14.014300
3075.245233	14.244400
3074.316767	14.319500
3072.530483	14.446900
3074.995117	14.309000
3070.852633	14.720200
3071.827633	14.702200
3071.785067	14.825600
3067.935550	15.032400
3076.134683	14.569600
3066.313517	15.174500
3078.473983	14.611600
3075.583133	14.842300
3082.248850	14.552100
3078.554050	14.794800
3080.416333	14.711200
3082.297550	14.618100
3089.596300	14.359800
3093.444833	14.152000
3080.155400	14.957700
3093.211183	14.189200
3089.620317	14.449400
3090.610100	14.531700
3097.706317	14.112800
3093.984483	14.359000
3098.639117	14.067500
3093.746200	14.395800
3092.879983	14.487400
3101.262367	14.111300
3093.656033	14.585800
3099.943583	14.263600
3093.293000	14.679300
3106.148083	13.930300
3096.105333	14.540500
3102.679483	14.315200
3103.431917	14.277800
3094.934483	14.812000
3094.708300	14.846700
3109.648683	14.092600
3106.370983	14.356300
3093.449817	15.246200
3100.332767	14.815100
3106.492167	14.460500
3106.777200	14.463300
3105.375067	14.593700
3110.044033	14.365000
3109.737367	14.506700
3109.053700	14.532900
3104.380717	14.830400
3103.756950	14.898300
3105.214500	14.856000
3100.945317	15.256700
3106.855300	14.911800
3106.534000	14.978700
3108.482783	14.899000
3114.099667	14.726900
3118.296417	14.505200
3112.304683	14.904100
3115.809400	14.709000
3117.644600	14.632500
3122.018400	14.370300
3116.790767	14.791400
3114.897900	14.936100
3112.736167	15.131900
3117.994650	14.815500
3112.587400	15.163800
3118.346917	14.857400
3112.489233	15.321400
3112.496850	15.350100
3125.234683	14.629900
3137.135300	13.921200
3128.958300	14.483100
3127.072150	14.622000
3113.471350	15.508500
3119.005967	15.199700
3128.190800	14.706000
3126.672883	14.834500
3128.834033	14.782900
3136.725833	14.420800
3133.907900	14.642400
3135.359250	14.589000
3129.552317	14.955500
3133.759033	14.703100
3126.047033	15.176500
3134.990717	14.803700
3140.967250	14.466300
3133.645983	14.965900
3136.959683	14.774800
3139.045300	14.653500
3135.233567	14.889500
3143.001783	14.540800
3139.281700	14.769600
3139.461767	14.824400
3138.609300	14.867100
3141.499767	14.768900
3141.177133	14.813200
3139.905417	14.973500
3138.131667	15.105800
3135.320283	15.298300
3142.252133	14.891500
3149.063583	14.574400
3145.167033	14.902900
3151.170033	14.569600
3150.807850	14.630100
3146.162417	14.946500
3157.554733	14.397400
3151.153533	14.818900
3147.328767	15.119600
3146.907300	15.189300
3154.881233	14.735800
3153.394633	14.840200
3151.007033	15.079300
3150.157067	15.145700
3148.742550	15.287100
3158.374983	14.730700
3158.948250	14.706600
3162.398733	14.533300
3152.089533	15.259300
3152.311650	15.271200
3152.150117	15.348200
3164.209767	14.655800
3158.443617	15.156200
3165.730067	14.782700
3173.163417	14.451200
3169.719367	14.655800
3155.825650	15.498000
3168.609667	14.775500
3171.835583	14.692600
3178.286967	14.389100
3164.825767	15.286400
3170.572167	14.935400
3166.278850	15.216000
3163.498017	15.398300
3175.098183	14.873800
3173.004233	15.039700
3166.334733	15.454000
3171.731350	15.173400
3182.197200	14.584500
3176.240117	15.108500
3178.619567	14.975000
3175.945233	15.178000
3178.052100	15.056100
3171.270933	15.481300
3179.293917	14.998100
3177.289267	15.197000
3174.726633	15.385000
3180.305650	15.141300
3183.304350	14.961000
3181.448100	15.099900
3167.947550	15.903900
3187.526350	14.936700
3182.225067	15.276500
3182.913100	15.278400
3181.197867	15.372800
3184.655250	15.342900
3186.299083	15.280300
3185.191350	15.427200
3192.850483	14.972200
3192.000133	15.067900
3188.248700	15.294600
3187.880217	15.360800
3188.672617	15.398300
3199.595850	14.787600
3195.727517	15.030500
3199.460900	14.828400
3196.910217	15.003200
3198.134817	14.983100
3197.981367	15.136100
3204.380417	14.769800
3200.427467	15.008600
3197.765683	15.188500
3201.016317	15.171200
3196.436350	15.492000
3196.201717	15.602900
3199.300050	15.449400
3199.668400	15.441300
3198.581483	15.525100
3206.837550	15.172500
3208.025517	15.150500
3212.467150	14.968200
3205.075417	15.428600
3214.222550	14.886600
3216.589967	14.740700
3207.701950	15.426300
3207.562083	15.449500
3218.567250	14.816100
3214.181817	15.105200
3217.440500	14.980200
3215.585817	15.182300
3216.933700	15.127800
3215.272567	15.292100
3217.699983	15.161500
3221.236750	14.968200
3219.483150	15.099300
3224.890450	14.859600
3226.518017	14.790800
3230.813367	14.618000
3220.357500	15.252900
3226.592167	14.900900
3227.231633	14.890000
3224.317967	15.083600
3224.284717	15.094100
3231.176133	14.923600
3226.842533	15.227200
3220.724967	15.600200
3222.523017	15.529100
3220.085067	15.765500
3225.700900	15.445800
3218.918300	15.901800
3227.332733	15.410200
3233.874550	15.114300
3235.359067	15.125600
3229.902267	15.494000
3228.699450	15.629100
3237.586083	15.128800
3238.585183	15.067900
3241.433233	14.945500
3245.928000	14.816700
3239.005017	15.257900
3238.242217	15.368600
3239.708517	15.285200
3239.035233	15.348100
3239.308667	15.348500
3253.249367	14.699000
3246.632900	15.103800
3248.991450	14.993100
3240.867883	15.467200
3242.580333	15.545200
3242.894683	15.570100
3248.315000	15.293400
3248.656017	15.311300
3237.616467	16.010900
3241.839817	15.772700
3249.513917	15.453200
3255.842933	15.134800
3243.541633	15.938500
3242.698183	16.033000
3247.185350	15.800700
3262.220133	14.916400
3257.961700	15.261900
3254.174067	15.529700
3252.068400	15.670200
3252.400067	15.679100
3254.978983	15.603700
3257.080983	15.626800
3255.272200	15.777600
3258.016817	15.713000
3257.152950	15.790800
3257.698600	15.769800
3265.522333	15.317200
3259.400150	15.880800
3261.901450	15.754200
3266.938483	15.472900
3268.049400	15.421500
3262.159050	15.927000
3265.149800	15.814200
3276.860883	15.128200
3275.851833	15.180400
3275.402433	15.201100
3269.346050	15.558900
3271.674417	15.481400
3266.329233	15.849400
3272.265067	15.590600
3267.243417	15.910400
3274.719233	15.499300
3275.974500	15.456000
3271.321867	15.776900
3280.350233	15.376600
3275.104083	15.708100
3269.343367	16.070300
3270.010767	16.084400
3285.409267	15.320900
3274.756967	16.000700
3284.546033	15.431500
3270.672700	16.296000
3285.729317	15.436100
3289.714167	15.193400
3280.539183	15.878200
3288.298050	15.478200
3285.289783	15.737500
3290.092367	15.469100
3289.480233	15.524200
3282.699417	15.959900
3289.542283	15.706300
3291.759467	15.638300
3291.165767	15.744500
3289.113150	15.899400
3291.181450	15.808200
3290.317850	15.878400
3304.632333	15.178000
3301.811200	15.334800
3287.810250	16.237500
3297.670367	15.653300
3301.038583	15.512800
3304.664000	15.416400
3302.958533	15.541000
3304.804850	15.409500
3299.394500	15.739200
3300.740467	15.692000
3299.285833	15.819400
3301.762950	15.727200
3300.422667	15.842600
3301.484733	15.855100
3302.087217	15.835700
3309.246467	15.407600
3300.061217	15.957800
3305.346133	15.820900
3308.473483	15.646300
3315.268867	15.254900
3313.953050	15.344400
3309.819733	15.735700
3315.111783	15.485500
3304.272450	16.198200
3311.470100	15.774000
3318.112250	15.385200
3313.571817	15.694400
3313.014483	15.856600
3315.400567	15.772700
3330.315733	14.943700
3320.876750	15.534000
3312.397550	16.045500
3327.552750	15.151800
3325.624467	15.316100
3323.256533	15.598300
3323.093267	15.663200
3323.771250	15.629100
3326.795100	15.490800
3327.928050	15.579300
3340.184600	14.936700
3327.369300	15.706800
3322.885183	15.986500
3323.582800	15.973500
3328.597050	15.670200
3331.131800	15.640200
3327.537250	15.865500
3324.170233	16.141000
3331.053233	15.728200
3322.204667	16.291700
3335.192000	15.521700
3333.268350	15.727200
3324.863567	16.251500
3327.587883	16.128400
3332.553583	15.859900
3332.629183	15.868900
3339.315950	15.505200
3330.911367	16.078100
3332.769750	16.106100
3341.051817	15.645500
3341.079633	15.690100
3337.026400	15.977700
3332.792483	16.359100
3330.511467	16.529600
3344.977000	15.730500
3347.394450	15.570300
3342.754050	15.861600
3337.360283	16.224400
3351.196217	15.570200
3347.902550	15.813000
3335.497700	16.632600
3349.161467	15.839600
3348.188517	15.886400
3342.927867	16.206800
3355.030867	15.677600
3353.664900	15.793200
3355.940717	15.672500
3352.441200	15.916800
3356.046383	15.835600
3360.884517	15.585800
3354.313500	16.053900
3347.995550	16.429500
3354.916233	16.062700
3355.879583	16.021000
3355.672017	16.169000
3354.328983	16.318300
3346.845900	16.887900
3356.547133	16.327000
3362.902017	15.987200
3363.646750	15.940500
3369.379983	15.636400
3368.034600	15.858600
3365.315017	16.033700
3369.345433	15.815500
3364.758800	16.104600
3364.677983	16.274500
3370.301283	15.949000
3368.468733	16.141900
3373.195300	15.873900
3374.943700	15.758700
3368.670650	16.152300
3368.153833	16.345600
3369.786333	16.257700
3367.461550	16.408800
3375.304550	15.957600
3373.595867	16.206800
3376.929583	16.056400
3384.891750	15.629100
3383.068500	15.739800
3376.395233	16.153600
3372.084117	16.434500
3372.462817	16.514600
3376.114617	16.400900
3387.905367	15.744500
3382.719350	16.081500
3382.718450	16.067400
3389.168267	15.691400
3385.472783	15.955000
3390.584817	15.798500
3382.852750	16.294500
3383.616867	16.270700
3391.276883	15.847000
3389.972483	16.048000
3389.154533	16.137100
3393.394733	15.951100
3390.493350	16.121400
3388.007800	16.269000
3391.675333	16.070500
3387.256533	16.427800
3396.732750	15.863100
3393.051200	16.095900
3403.292783	15.509800
3396.107683	16.109500
3400.354967	15.864500
3394.818550	16.277400
3400.121917	16.017200
3390.181867	16.699100
3400.879533	16.069000
3397.313583	16.308700
3398.306917	16.264100
3400.598167	16.175900
3406.426167	15.947000
3405.834917	16.001900
3406.734450	15.937200
3406.953933	15.917200
3398.941250	16.598400
3410.676367	15.893300
3414.024517	15.719300
3413.169600	15.788700
3401.409067	16.684100
3408.314467	16.310300
3413.486867	16.058600
3411.694317	16.170800
3415.526800	15.983100
3412.164017	16.200500
3417.312800	15.901200
3414.962000	16.062300
3402.830967	16.940300
3413.693250	16.343100
3409.999333	16.588900
3417.935567	16.133300
3420.014100	16.083000
3425.840417	15.847700
3420.063183	16.241500
3423.692417	16.080200
3421.572317	16.209800
3424.323933	16.057900
3420.864700	16.283400
3426.776233	16.014400
3428.435233	15.934000
3424.142500	16.214400
3426.523250	16.079400
3424.259933	16.394200
3422.079150	16.596300
3427.447250	16.368600
3423.000167	16.648100
3426.320700	16.461300
3427.521283	16.407400
3425.355583	16.664500
3431.578267	16.341200
3437.235550	16.043400
3441.746333	15.832600
3430.226600	16.562700
3432.452933	16.417900
3434.922117	16.272800
3430.321083	16.557700
3427.075117	16.823600
3435.733950	16.427700
3431.255733	16.724500
3428.971033	16.902100
3428.012217	17.000900
3440.168367	16.424000
3435.798467	16.740200
3439.965900	16.561800
3439.962783	16.593400
3436.352083	16.811800
3434.186650	16.962900
3442.017050	16.685100
3450.266450	16.216500
3444.129250	16.602000
3445.773700	16.535400
3450.266383	16.395700
3444.613967	16.799600
3447.982767	16.709600
3454.588800	16.302300
3456.651767	16.221800
3454.829850	16.343700
3465.379783	15.820900
3451.594000	16.697100
3454.892217	16.608200
3454.651817	16.607900
3458.822000	16.376100
3460.474600	16.291200
3458.742367	16.420400
3443.026400	17.429400
3449.345150	17.071500
3456.805617	16.643600
3449.181067	17.157800
3455.725583	16.924900
3450.689400	17.272800
3464.666033	16.521700
3454.450983	17.157400
3466.190483	16.480600
3462.845650	16.701900
3463.456800	16.833300
3471.270033	16.376200
3475.820167	16.130000
3478.214467	15.980900
3473.391050	16.290000
3467.201750	16.685100
3486.393883	15.604600
3475.016250	16.269600
3466.114983	16.831900
3470.782917	16.564700
3469.631767	16.737800
3480.470167	16.180700
3477.624200	16.375500
3472.605650	16.732500
3474.359717	16.672100
3472.083183	16.839400
3478.800833	16.463800
3471.824783	17.035600
3474.758417	16.886300
3472.244133	17.079100
3482.377067	16.508300
3481.301567	16.738700
3484.922450	16.547700
3479.583317	16.943300
3490.357267	16.317200
3478.066267	17.136200
3481.437700	16.937100
3488.018950	16.573800
3486.396050	16.671600
3487.618317	16.697300
3481.943883	17.066200
3472.880350	17.648400
3479.870867	17.247800
3479.007217	17.451500
3484.088650	17.227200
3488.382817	17.013800
3489.611617	16.951400
3492.572917	16.798100
3494.130083	16.730500
3494.203633	16.783900
3500.168850	16.582500
3502.777367	16.461800
3496.180467	16.909700
3494.174050	17.029500
3501.778067	16.594700
3502.867283	16.564600
3512.939417	16.117400
3507.280483	16.466200
3502.874283	16.745200
3507.783283	16.455400
3503.503983	16.854700
3510.423317	16.476200
3511.688600	16.452600
3505.992317	16.791200
3504.755583	16.884400
3516.066283	16.215700
3507.864133	16.783000
3507.306100	16.844100
3508.173600	16.845900
3516.235317	16.376600
3511.289000	16.679400
3517.131317	16.351700
3508.193400	17.082000
3513.511283	16.784200
3521.800100	16.269000
3515.084883	16.719400
3506.070033	17.346400
3517.538933	16.803400
3521.352767	16.597400
3519.340700	16.769700
3518.885300	16.796100
3529.069150	16.216500
3520.862650	16.703100
3521.745217	16.786100
3516.742783	17.124700
3526.207567	16.648100
3526.051683	16.696000
3522.716517	16.928000
3518.715100	17.195100
3527.370967	16.812800
3528.160633	16.833100
3525.745417	16.986500
3528.467150	16.844700
3519.737217	17.436500
3522.464933	17.332300
3518.075650	17.679000
3518.319033	17.748100
3526.767617	17.244500
3528.525650	17.163900
3533.460283	16.984900
3537.789917	16.816700
3534.276000	17.061000
3531.287117	17.284400
3536.186600	17.002500
3537.241867	16.963100
3549.290933	16.247200
3548.298400	16.324500
3539.426783	16.882300
3545.621817	16.545500
3540.957467	16.821500
3532.363800	17.421600
3539.154417	17.047700
3532.512383	17.568400
3540.286467	17.134100
3545.071200	16.854300
3541.931367	17.073200
3539.626550	17.337600
3543.802367	17.144600
3553.235783	16.630900
3545.784517	17.092400
3542.837917	17.307500
3538.923900	17.552700
3544.954983	17.272000
3540.579117	17.583500
3549.548750	17.076000
3546.508367	17.280200
3554.114317	16.813100
3550.240367	17.074100
3559.887867	16.519100
3565.727383	16.324900
3560.470617	16.663400
3559.001817	16.780100
3551.684217	17.262500
3550.246683	17.511100
3555.758233	17.219800
3551.116183	17.554000
3556.903617	17.236700
3552.505867	17.565800
3553.128683	17.568400
3549.726817	17.946500
3552.213017	17.894300
3565.135550	17.169600
3568.188417	17.030300
3564.067117	17.289800
3562.758700	17.383500
3564.342417	17.377400
3563.249183	17.557900
3567.252100	17.321700
3567.415400	17.352900
3560.057150	17.803500
3567.204983	17.466100
3560.589317	17.887400
3564.711767	17.666600
3566.452967	17.601200
3568.148700	17.511600
3572.835483	17.241100
3564.409333	17.836300
3571.499317	17.452400
3568.026767	17.753300
3573.499683	17.473900
3577.268383	17.303200
3580.947783	17.097700
3579.226133	17.370400
3576.462883	17.561500
3585.990033	17.034700
3580.475650	17.359200
3579.815650	17.482800
3587.820783	17.116000
3590.281183	16.996300
3586.904050	17.216400
3586.039433	17.264800
3583.361567	17.465600
3586.379933	17.300500
3583.589850	17.538300
3583.412983	17.585500
3593.044467	17.068100
3592.702333	17.095300
3586.436383	17.481700
3588.673050	17.365200
3598.011983	17.005000
3597.421583	17.034100
3591.444067	17.407100
3588.169300	17.608500
3593.596200	17.466300
3599.543967	17.182700
3588.755317	17.905400
3593.621350	17.634600
3608.984233	16.757800
3596.467417	17.523200
3611.295783	16.783000
3603.821667	17.308100
3600.334767	17.559200
3601.077983	17.546800
3599.313417	17.643200
3611.754500	16.941000
3612.930667	16.933700
3606.012733	17.477200
3603.877150	17.657700
3607.298667	17.498600
3616.409700	16.960500
3613.211833	17.185900
3616.146650	17.035500
3611.840567	17.445800
3620.523150	16.923900
3621.480183	16.851700
3612.223350	17.431800
3605.251250	17.991000
3614.644683	17.489500
3609.620967	17.873900
3611.689300	17.771700
3614.315550	17.629200
3618.324133	17.405200
3625.261400	17.112000
3623.383567	17.310800
3627.695883	17.108200
3628.481167	17.103500
3623.278083	17.416600
3614.404050	17.964300
3626.870683	17.380900
3624.675333	17.561200
3624.101217	17.590700
3625.457600	17.544600
3631.640633	17.255800
3630.637833	17.412400
3624.358300	17.818500
3632.597333	17.406400
3632.251600	17.430600
3628.167133	17.693500
3633.570150	17.371500
3630.730217	17.700200
3628.015583	17.903200
3639.711867	17.288600
3634.723867	17.604500
3642.553700	17.150100
3632.729617	17.745800
3637.460333	17.673100
3636.894683	17.731600
3642.423200	17.409600
3637.422483	17.702800
3640.012333	17.675500
3641.778100	17.652000
3648.236733	17.260300
3642.515250	17.619300
3645.251583	17.471800
3639.157233	17.847100
3643.970050	17.620800
3642.086367	17.805800
3645.195233	17.685100
3646.136850	17.697600
3648.809367	17.559200
3649.489483	17.547400
3646.321267	17.817800
3646.540833	17.927200
3648.985767	17.813300
3645.304900	18.061800
3653.674383	17.596600
3656.242550	17.563800
3647.594133	18.112000
3649.350950	18.095700
3648.440350	18.171600
3647.347400	18.252900
3650.462617	18.095900
3646.821700	18.429900
3645.800017	18.549200
3645.732333	18.635500
3650.244600	18.380700
3654.244867	18.311900
3657.733000	18.165000
3664.551100	17.842500
3658.338733	18.211600
3658.038117	18.272600
3663.309650	17.970300
3661.965633	18.162100
3668.309600	17.901300
3667.586933	17.985400
3668.364317	17.976200
3661.564483	18.388000
3669.912600	17.908200
3670.467850	17.925000
3678.198183	17.568400
3671.775800	17.978100
3668.714867	18.223100
3663.970433	18.510100
3661.491367	18.693500
3661.175983	18.720400
3665.689683	18.631300
3669.290100	18.431700
3666.078167	18.657200
3673.655083	18.241900
3679.802083	18.006100
3689.665817	17.459900
3675.005033	18.335500
3680.974167	17.984900
3677.566950	18.197400
3680.628567	18.025700
3678.476983	18.291100
3683.201383	18.069100
3685.164583	18.062800
3686.327333	17.989300
3683.463317	18.183800
3684.983783	18.117100
3679.806067	18.519500
3693.431933	17.799100
3683.996517	18.373700
3686.700367	18.226100
3687.982467	18.179000
3689.739450	18.244200
3691.548117	18.166100
3701.811200	17.619600
3698.978167	17.788100
3698.341750	17.832900
3690.557383	18.304900
3694.481100	18.146700
3688.140383	18.557800
3695.074917	18.209600
3702.927867	17.774300
3703.604533	17.761600
3690.928650	18.533400
3700.079350	18.167700
3703.906917	17.972900
3701.962050	18.083700
3703.437800	18.018300
3709.517983	17.759200
3706.952167	17.979500
3705.910017	18.053300
3699.452783	18.531100
3707.549017	18.057500
3704.705417	18.247700
3700.521550	18.579600
3703.488650	18.558000
3701.922233	18.671200
3716.716450	17.818500
3715.219867	17.903300
3710.589617	18.259700
3709.445100	18.340800
3720.936533	17.738800
3717.971600	17.931600
3715.438550	18.161100
3716.159950	18.113100
3716.512967	18.121400
3710.654750	18.510600
3714.568450	18.488400
3723.870400	17.938500
3723.339683	17.987200
3716.960667	18.381800
3725.335567	18.007100
3720.897800	18.332400
3728.401383	17.940400
3721.003900	18.417600
3730.956117	17.873900
3728.921383	17.977600
3721.692500	18.482400
3727.058367	18.202400
3727.601367	18.230600
3728.928650	18.200400
3727.412683	18.304000
3726.973850	18.348000
3734.930383	17.909200
3732.717833	18.157900
3729.028100	18.404400
3737.227667	17.941400
3732.670333	18.262900
3732.634467	18.378800
3729.170133	18.610000
3728.776150	18.721500
3730.566350	18.670500
3736.171817	18.374000
3734.415683	18.484300
3739.259117	18.346700
3741.581267	18.269900
3744.406250	18.165600
3744.466450	18.165900
3735.588683	18.726100
3734.214933	18.803500
3734.048083	18.917200
3734.855200	18.972300
3749.919083	18.091600
3749.677600	18.115200
3748.416217	18.241100
3754.938850	17.882100
3752.936083	18.094900
3755.370417	18.047300
3752.647733	18.204400
3747.385217	18.538100
3749.878767	18.441200
3751.500333	18.452200
3752.655850	18.420900
3754.008517	18.415400
3752.843983	18.504100
3757.048183	18.268900
3753.989817	18.443900
3755.346483	18.522400
3749.530833	18.908500
3752.590350	18.765600
3754.012867	18.689900
3757.988333	18.610900
3751.510800	19.075500
3766.727467	18.244100
3769.279617	18.097700
3765.412367	18.352700
3768.430633	18.226900
3763.959600	18.558000
3761.939933	18.704500
3763.258533	18.637600
3766.780533	18.438400
3770.044033	18.282100
3764.324750	18.640800
3772.139583	18.213100
3761.330983	18.933400
3769.538650	18.475800
3765.625183	18.726700
3772.281750	18.392700
3763.126167	19.104200
3765.019667	19.083800
3770.746733	18.836800
3775.746867	18.572300
3774.929017	18.659900
3769.257833	19.025200
3779.409817	18.544700
3783.529383	18.333400
3777.898467	18.747800
3774.224767	18.980600
3784.452100	18.384900
3782.389700	18.533100
3782.203683	18.731500
3785.449317	18.576800
3778.944383	18.975400
3776.805250	19.110000
3782.835350	18.918000
3782.077100	19.000800
3790.740917	18.513800
3786.380317	18.777800
3784.104933	18.981700
3786.023467	18.868700
3785.481767	19.041500
3787.114167	19.029500
3786.138200	19.152900
3787.808933	19.096300
3789.992117	18.984500
3785.728450	19.274400
3789.933850	19.101300
3793.486367	19.026500
3796.722567	18.848900
3800.230550	18.624300
3801.266200	18.612000
3804.683117	18.530900
3798.795467	18.894500
3799.792050	18.858300
3794.617883	19.207600
3800.777133	18.865300
3804.057233	18.680800
3802.931617	18.898700
3811.561700	18.440400
3800.619667	19.159700
3800.990350	19.137600
3805.500633	18.904900
3803.324150	19.044300
3797.196083	19.481500
3800.018483	19.335400
3797.368817	19.502900
3799.788033	19.395700
3811.201817	18.870500
3809.735233	19.003600
3809.000717	19.153700
3809.997667	19.096700
3813.387783	18.895000
3811.332983	19.019500
3814.144233	18.956800
3817.809667	18.863300
3814.850967	19.073600
3814.237850	19.164900
3813.658517	19.218200
3815.910150	19.125300
3820.916783	18.842500
3821.713133	18.874000
3822.768567	18.833000
3820.273133	19.018300
3826.641517	18.662900
3820.976233	19.160500
3821.054500	19.203000
3814.535900	19.671900
3824.718317	19.084700
3831.534750	18.699000
3825.463167	19.090100
3831.162533	18.922900
3828.619233	19.102600
3822.012967	19.508600
3821.506583	19.555600
3841.455050	18.486600
3840.741867	18.593600
3834.775083	19.006900
3837.598850	18.876300
3843.826367	18.503300
3837.487000	18.918300
3824.266300	19.743600
3836.469183	19.072300
3830.785433	19.453600
3833.523400	19.353000
3839.641867	18.988700
3841.855867	18.873800
3838.662767	19.114400
3837.195983	19.311700
3838.198933	19.288600
3842.249583	19.120600
3843.615817	19.057700
3845.658867	18.966200
3843.333717	19.123100
3855.859750	18.553200
3845.062150	19.221900
3842.267017	19.403600
3845.721317	19.207100
3852.179300	19.014300
3852.353950	19.055400
3852.822467	19.083800
3861.433300	18.561000
3853.228300	19.080300
3851.273967	19.210100
3848.035633	19.525600
3848.597733	19.629100
3860.718483	19.017400
3856.431083	19.262800
3855.690900	19.333800
3856.882367	19.231700
3855.905650	19.353000
3853.238383	19.583200
3861.107417	19.132700
3859.310500	19.271100
3857.499600	19.415100
3866.401800	18.948900
3868.392667	18.855200
3864.594150	19.119000
3860.321983	19.406200
3856.770767	19.642400
3858.580850	19.554600
3874.391533	18.770500
3870.821517	19.012100
3867.844383	19.278400
