#Y dist(nm)	Y force(pN)
3754.673450	20.007500
3762.894100	19.525100
3767.565017	19.270900
3765.975550	19.376300
3774.789767	18.945100
3770.233517	19.238500
3775.351450	19.016300
3770.169900	19.359500
3776.457850	19.022600
3768.862883	19.497300
3767.561617	19.753600
3767.834883	19.811100
3781.376033	19.107600
3780.690300	19.160000
3776.570600	19.428200
3781.445200	19.155800
3782.972633	19.251600
3784.993917	19.148200
3781.035183	19.423800
3785.768233	19.155000
3794.445850	18.674300
3781.963350	19.454900
3783.236250	19.417700
3778.817800	19.713800
3785.869883	19.363500
3783.265717	19.505800
3782.843333	19.613700
3777.179133	20.110800
3784.602800	19.733300
3779.899100	20.099300
3772.968433	20.573100
3792.979250	19.418600
3791.058533	19.571700
3799.600200	19.196300
3797.046000	19.380800
3801.987550	19.165700
3804.870450	18.966200
3803.940683	19.027800
3804.537883	19.020600
3797.314033	19.599900
3803.806750	19.271600
3798.201917	19.695700
3794.132850	19.984400
3793.464917	20.039800
3804.579217	19.393300
3801.900067	19.636300
3803.100033	19.589100
3801.831133	19.690200
3799.795600	19.835000
3805.702417	19.586800
3803.045883	19.815900
3813.378850	19.234400
3812.225733	19.333500
3806.608733	19.705200
3808.158867	19.627600
3800.059750	20.138900
3812.057267	19.615300
3805.800367	20.021800
3809.146217	19.849600
3811.693083	19.727400
3806.166650	20.143100
3804.678000	20.264300
3820.044633	19.423500
3820.509200	19.385900
3813.628550	19.825100
3821.414417	19.389400
3821.829483	19.522800
3814.563283	20.030400
3813.865733	20.155500
3816.568167	19.984300
3819.716200	19.840400
3812.785067	20.280100
3822.275917	19.930000
3822.806717	19.897900
3816.689550	20.323400
3821.651517	20.015200
3831.870950	19.487000
3831.701383	19.602900
3837.926267	19.263100
3835.992467	19.442200
3837.974100	19.341200
3832.891567	19.647400
3827.284150	19.999400
3841.946067	19.310200
3838.305450	19.539200
3833.238300	19.835600
3840.722883	19.405500
3838.312433	19.680600
3844.269450	19.354700
3838.291800	19.772600
3836.619867	19.878400
3837.576333	19.853100
3844.101600	19.470800
3835.389033	20.134500
3835.441883	20.172000
3835.762367	20.238400
3840.343667	19.976800
3842.686467	19.852000
3840.810933	19.992300
3839.043050	20.272700
3842.008917	20.141800
3841.582350	20.209700
3843.744517	20.057800
3846.053683	19.992000
3846.932600	20.053400
3855.623817	19.554100
3860.053833	19.323900
3851.952800	19.835600
3843.034833	20.388900
3848.410267	20.082100
3856.424400	19.619000
3853.333250	19.843100
3855.615950	19.849100
3854.476983	19.939500
3852.409367	20.081200
3850.382333	20.216100
3845.218067	20.691100
3851.517983	20.352000
3850.995167	20.354800
3852.642883	20.276700
3855.713233	20.125800
3857.243683	20.056500
3862.237400	19.783100
3862.743683	19.771500
3862.992517	19.780300
3860.716783	19.911900
3862.507317	19.636300
3854.966867	19.944100
3855.470817	19.940500
3854.876133	19.960800
3858.012233	19.748400
3860.341050	19.570100
3854.616967	19.933000
3855.874683	19.848900
3861.350217	19.511200
3858.329183	19.608900
3846.860450	20.288000
3855.522300	19.765400
3854.144683	19.850400
3856.555000	19.750100
3861.942217	19.422100
3856.450617	19.573300
3848.545050	20.040500
3845.008633	20.248200
3853.733933	19.744200
3845.410233	20.227800
3844.328133	20.297100
3847.503650	19.933700
3852.932550	19.546700
3852.067567	19.583800
3848.648467	19.792900
3847.310767	19.902700
3845.800083	19.992900
3849.865917	19.728100
3841.018867	20.267800
3842.052033	20.008200
3836.488567	20.244700
3842.783883	19.879200
3844.334333	19.773300
3843.240750	19.850600
3841.480133	19.962600
3843.123717	19.877500
3844.193867	19.816900
3842.571217	19.897600
3836.446600	20.154800
3833.086317	20.369200
3836.778883	20.137800
3844.450400	19.623500
3835.011533	20.084100
3836.117583	20.035800
3838.516717	19.886800
3843.315717	19.592800
3834.844650	19.964600
3842.843733	19.460400
3843.658967	19.410400
3838.328050	19.757600
3827.856717	20.229700
3835.433917	19.773400
3834.273717	19.833700
3837.762550	19.631000
3830.040417	20.002000
3833.161867	19.799200
3833.362667	19.779400
3832.829850	19.816700
3834.780267	19.680700
3834.173533	19.709700
3833.586733	19.742100
3830.022050	19.956800
3833.571933	19.747500
3832.820617	19.787800
3832.752450	19.638200
3825.416433	19.865700
3829.195033	19.603500
3832.244550	19.411400
3822.322850	20.008700
3826.337383	19.634400
3825.559350	19.683500
3828.161133	19.525800
3821.563167	19.946200
3833.930633	19.066500
3825.796783	19.502400
3825.396850	19.498700
3822.256467	19.719400
3823.517733	19.657200
3823.762367	19.642900
3818.642100	19.864400
3823.295883	19.584900
3835.424900	18.881000
3828.444033	19.275900
3825.607383	19.434300
3821.894000	19.648400
3813.038233	20.040900
3820.277417	19.535200
3823.212983	19.329300
3821.965150	19.404800
3821.519367	19.381300
3813.401700	19.747100
3814.687100	19.653500
3807.989650	20.048900
3812.548700	19.792700
3812.484150	19.793000
3819.791600	19.338800
3814.591417	19.465300
3813.965750	19.496000
3807.416467	19.888600
3809.297450	19.764200
3810.138867	19.686100
3812.794333	19.530000
3817.277033	19.261200
3816.368783	19.306200
3807.879817	19.654600
3812.809733	19.344600
3802.474767	19.944400
3809.065900	19.520900
3800.541467	19.969300
3812.013233	19.257000
3805.620200	19.605500
3807.884267	19.446700
3806.536467	19.523500
3803.349633	19.710900
3805.336383	19.553400
3801.494550	19.672100
3806.082783	19.384500
3805.437217	19.410700
3806.544183	19.354800
3805.416100	19.383800
3801.722183	19.620900
3802.773300	19.572200
3802.121367	19.564600
3795.981050	19.806200
3799.726783	19.568100
3807.445567	19.083400
3811.079817	18.829300
3804.451600	19.174700
3804.924800	19.123700
3803.277017	19.209100
3805.452167	19.054900
3801.622933	18.921600
3795.760317	19.250800
3797.466900	19.154300
3796.609950	19.195700
3799.296133	18.913200
3799.682733	18.853200
3791.183933	19.355100
3790.034300	19.407500
3786.001667	19.644700
3788.800600	19.487600
3788.885333	19.361400
3797.154133	18.783300
3788.331883	19.301400
3792.239067	19.042300
3799.445117	18.601300
3792.230300	19.033100
3793.472500	18.948800
3786.808183	19.350300
3789.738567	19.159600
3784.829833	19.163400
3788.903950	18.891500
3786.359200	19.037600
3786.065000	19.061600
3788.320867	18.853000
3783.067800	19.147700
3784.684183	19.014900
3779.304200	19.337300
3780.343217	19.248100
3781.324267	19.170100
3784.020800	19.002500
3782.483667	19.097500
3776.882750	19.277900
3787.680883	18.590400
3787.773567	18.568000
3779.832000	19.056500
3783.647050	18.731300
3777.147217	19.052500
3779.468883	18.924600
3775.928933	19.134000
3776.515633	19.084800
3776.136583	19.092600
3777.216233	18.989100
3781.392200	18.697400
3779.912467	18.769300
3771.538900	19.195700
3774.318917	19.024600
3771.905817	19.174000
3779.503300	18.666800
3772.853350	18.924800
3776.194317	18.742000
3770.806417	18.988000
3770.863100	18.991100
3775.011367	18.736300
3770.357100	19.013900
3769.405483	18.939300
3766.797383	19.076100
3762.732600	19.288400
3774.718583	18.574200
3769.827200	18.737000
3764.789550	18.963800
3766.987233	18.755100
3761.151800	19.126100
3773.748900	18.364400
3765.051883	18.904800
3762.836617	18.953500
3763.247483	18.807600
3768.872250	18.438200
3763.625767	18.724900
3767.912283	18.444900
3763.332517	18.681700
3762.884600	18.670400
3758.868067	18.799300
3761.031017	18.659200
3757.007567	18.907600
3759.565767	18.686200
3756.360333	18.786000
3755.086550	18.875300
3754.618267	18.852700
3750.314483	19.117800
3758.081067	18.662800
3759.637717	18.554200
3760.461833	18.364500
3753.267900	18.785300
3751.438767	18.852100
3750.854167	18.863800
3757.329350	18.474500
3760.201000	18.319400
3757.082333	18.401700
3756.430567	18.399100
3745.581533	19.008600
3744.898733	19.062600
3749.929333	18.765000
3754.303183	18.496800
3751.537567	18.477100
3747.725167	18.737200
3750.755700	18.555800
3746.897100	18.750800
3746.252833	18.742200
3753.035783	18.249600
3748.588417	18.501700
3747.161900	18.504800
3741.938867	18.814300
3745.232217	18.627400
3752.052600	18.212300
3741.735367	18.685900
3746.498383	18.410400
3750.191967	18.208300
3751.781850	18.108500
3744.737133	18.462000
3744.864100	18.428300
3742.378800	18.518300
3744.338000	18.418700
3740.130567	18.654700
3745.041950	18.357200
3747.644400	18.168500
3739.107833	18.664800
3734.649200	18.916700
3739.401650	18.616400
3740.771933	18.482400
3737.054983	18.723600
3738.926900	18.560300
3733.352817	18.854800
3730.080600	19.039100
3735.371717	18.608200
3728.325717	19.010800
3732.539067	18.762100
3733.481650	18.695300
3737.728383	18.287400
3732.174050	18.602300
3727.798633	18.875400
3730.943750	18.698900
3719.956533	19.283100
3720.814000	19.212500
3728.373733	18.777600
3722.919350	19.100600
3732.981167	18.352000
3728.253233	18.606900
3731.922550	18.344300
3730.451167	18.426100
3731.067950	18.322400
3730.098583	18.369600
3733.298467	18.164200
3725.367700	18.629900
3723.930383	18.621000
3725.844133	18.401100
3721.325500	18.641600
3718.372317	18.776800
3717.780217	18.806800
3724.828967	18.368200
3723.932733	18.411900
3723.156150	18.321200
3719.814967	18.519700
3717.886117	18.655000
3723.501983	18.312900
3715.559383	18.666300
3720.092000	18.341600
3716.587317	18.483700
3715.175150	18.576800
3721.878733	18.178200
3708.205883	18.989400
3715.954917	18.368800
3711.260983	18.606000
3714.089333	18.404700
3708.138933	18.732000
3711.295850	18.542000
3709.325267	18.685000
3707.228317	18.660700
3715.915450	18.134900
3706.561583	18.685200
3709.202133	18.536100
3709.840283	18.458400
3716.321883	17.964000
3709.133350	18.373700
3712.635700	18.121100
3713.597050	18.056600
3707.543750	18.424700
3708.092933	18.388800
3712.612583	18.038100
3714.688967	17.889700
3711.570867	18.015100
3703.454733	18.492000
3702.930900	18.506000
3705.863867	18.327100
3706.916783	18.095400
3702.991683	18.301200
3697.859517	18.589600
3698.966700	18.525800
3695.638067	18.607600
3690.863733	18.831000
3697.968967	18.367000
3698.274183	18.315600
3697.958650	18.343400
3696.850417	18.392500
3692.130933	18.625200
3691.238533	18.645600
3692.178017	18.559300
3692.383317	18.515200
3688.533617	18.736900
3693.549900	18.458900
3692.211167	18.484300
3695.396567	18.157900
3688.097983	18.578400
3692.401917	18.322000
3696.253167	18.072400
3685.592267	18.603700
3685.991417	18.565600
3689.287833	18.297900
3702.229100	17.499800
3695.278600	17.868200
3697.702167	17.707000
3684.481233	18.368700
3685.340033	18.294900
3690.550083	17.942100
3695.648017	17.606500
3684.979800	18.253400
3690.632117	17.911000
3684.783833	18.096900
3681.409450	18.293000
3689.589200	17.805800
3682.863683	18.200400
3680.599783	18.216600
3680.930533	18.125700
3677.432017	18.320200
3681.607867	18.052900
3674.724867	18.487600
3681.536000	18.064100
3680.866467	18.096700
3674.915517	18.346000
3676.304600	18.248300
3671.462750	18.493700
3669.801567	18.630700
3680.417267	17.965900
3678.369750	18.087200
3682.562917	17.666200
3670.972217	18.350200
3677.030817	17.976700
3672.049733	18.250800
3678.257650	17.781500
3677.399500	17.785100
3676.269517	17.828500
3672.711467	18.020200
3676.620167	17.760700
3664.367183	18.504000
3664.484450	18.407300
3666.964917	18.233500
3664.186817	18.354700
3676.278650	17.581400
3674.795017	17.667100
3665.266967	18.226000
3673.216600	17.712800
3662.333700	18.243200
3665.901850	18.025700
3664.719517	18.086500
3660.526733	18.347700
3664.228617	17.986900
3657.456917	18.365500
3656.854850	18.407900
3659.525217	18.226600
3665.017850	17.924300
3668.914467	17.695600
3665.492483	17.694900
3658.546417	18.040600
3654.481700	18.262100
3655.219483	18.201900
3651.498033	18.411000
3658.845950	17.969600
3656.253200	18.095300
3662.433683	17.700600
3659.295467	17.837200
3660.165733	17.790000
3661.735483	17.698200
3654.601783	18.126900
3652.701917	18.214900
3658.791650	17.736200
3654.420667	17.992000
3659.082817	17.739100
3661.429167	17.587000
3659.697267	17.525800
3651.976600	17.972600
3645.169583	18.332400
3651.801617	17.928400
3651.809583	17.919000
3649.131600	18.090500
3653.030050	17.784200
3648.812683	17.975400
3645.230700	18.180800
3649.245933	17.935500
3649.061083	17.815200
3650.491533	17.658900
3640.126983	18.196500
3645.331117	17.910700
3639.856233	18.267300
3647.706600	17.762300
3641.985133	18.096900
3644.932717	17.914300
3644.846167	17.748100
3647.973217	17.561200
3644.039850	17.781200
3639.924350	17.979500
3641.035250	17.892500
3640.297383	17.822700
3646.263600	17.458700
3640.034617	17.789200
3634.981300	18.100100
3635.163600	18.111500
3630.206550	18.400400
3637.794983	17.782200
3641.290750	17.567000
3640.381100	17.598200
3640.178833	17.597700
3635.164567	17.858200
3637.209667	17.709400
3642.973117	17.278600
3638.748067	17.515900
3628.008433	18.167700
3625.734167	18.301600
3633.380550	17.783000
3627.003600	18.068300
3634.044767	17.624800
3633.503383	17.610300
3629.402617	17.825500
3631.595050	17.666000
3629.754683	17.769000
3623.821350	17.974100
3631.832450	17.483600
3631.618783	17.494200
3630.103667	17.576500
3632.722283	17.264100
3632.276317	17.233300
3635.042517	17.020300
3626.120683	17.563800
3629.334567	17.383900
3634.749717	17.030800
3624.564017	17.526400
3622.020533	17.627400
3625.896817	17.349400
3614.671883	18.033900
3629.027317	17.182300
3626.132383	17.358300
3626.347217	17.263600
3618.774633	17.628000
3625.945483	17.171100
3620.282983	17.538900
3620.611200	17.439800
3616.585483	17.587200
3619.025783	17.427600
3620.420067	17.310700
3626.462983	16.955700
3615.154183	17.605200
3618.404933	17.384400
3621.449283	17.091600
3613.216450	17.580200
3610.934150	17.640800
3615.548333	17.358600
3615.948933	17.329800
3611.098383	17.630100
3613.680767	17.404300
3614.860267	17.319100
3606.851667	17.754400
3613.930633	17.354700
3612.542700	17.456300
3604.273100	17.945600
3598.864917	18.123100
3611.979050	17.341400
3609.329533	17.498400
3608.929700	17.516600
3609.189617	17.377900
3616.277683	16.889100
3604.074500	17.560100
3603.604267	17.563600
3606.774883	17.377200
3616.319533	16.817700
3610.104283	17.154900
3609.348800	17.032400
3597.540833	17.740800
3608.311050	17.054900
3597.162217	17.702800
3597.730333	17.658900
3597.656550	17.684300
3595.866200	17.717600
3591.886200	17.944100
3608.714850	16.936100
3603.704800	17.243000
3594.634267	17.656900
3591.449333	17.782800
3595.114233	17.517300
3595.681300	17.487200
3596.421667	17.456800
3594.967433	17.545800
3599.638900	17.129900
3592.865250	17.493200
3593.038983	17.454300
3595.467767	17.256100
3596.035917	17.218300
3586.908200	17.763500
3592.182517	17.411500
3586.869083	17.592000
3581.856217	17.887900
3588.575233	17.496300
3590.525500	17.334500
3591.039483	17.185500
3592.340350	17.080700
3588.280400	17.284100
3583.569883	17.557800
3580.642833	17.708700
3584.016983	17.527800
3580.698283	17.544900
3578.131667	17.680600
3583.639583	17.346300
3592.116967	16.819300
3584.790583	17.104500
3579.446000	17.382200
3577.041567	17.451400
3582.916400	17.105900
3583.328517	17.079700
3578.721817	17.378800
3583.632067	16.964800
3578.746417	17.198200
3569.083167	17.748100
3580.013367	17.090500
3576.887383	17.262300
3577.761717	17.196400
3573.392767	17.391400
3572.785217	17.447800
3567.655117	17.695600
3574.143800	17.349500
3574.573917	17.290000
3569.742483	17.453700
3574.591000	17.141900
3574.578383	17.113800
3570.553500	17.378300
3571.706317	17.298700
3565.101733	17.654400
3565.038283	17.501100
3562.206967	17.682100
3565.396483	17.475300
3561.627050	17.683700
3563.087750	17.455700
3567.602533	17.198400
3568.748433	17.069700
3561.015367	17.505100
3563.912400	17.257700
3571.468650	16.830800
3565.938883	17.145600
3562.757867	17.329000
3560.142817	17.365600
3553.164233	17.738700
3554.254083	17.682000
3549.885567	17.889700
3556.931083	17.470800
3556.401083	17.496900
3558.927567	17.299900
3556.533717	17.329300
3559.429217	17.133700
3557.685583	17.236500
3567.223467	16.649800
3560.295417	16.927900
3558.799567	16.987900
3547.453083	17.628300
3550.777500	17.431100
3541.433083	17.996700
3546.272517	17.701300
3550.460167	17.345500
3547.874617	17.486500
3556.172517	16.956100
3553.994450	17.091800
3556.758183	16.934700
3562.794717	16.559800
3544.946783	17.538300
3552.291117	17.077300
3544.764350	17.501600
3546.407333	17.409900
3541.045800	17.587700
3547.463383	17.135700
3552.451617	16.825900
3552.358467	16.786300
3550.552267	16.885900
3549.559817	16.948900
3548.194100	17.002400
3547.625433	16.917600
3555.031800	16.434200
3549.560567	16.711300
3557.761450	16.206800
3545.602800	16.931600
3547.557983	16.808700
3533.597533	17.565000
3537.944467	17.322700
3551.658750	16.475300
3546.802500	16.747100
3543.627117	16.844800
3542.901450	16.855700
3534.674400	17.277800
3539.169283	17.008200
3538.401267	17.034700
3547.599233	16.486500
3545.720067	16.497700
3542.593983	16.602900
3541.572733	16.583700
3548.209600	16.173500
3536.068767	16.880200
3541.413333	16.551600
3530.418400	17.155400
3528.602267	17.175400
3529.766133	17.099700
3529.463783	17.134800
3535.496917	16.756300
3521.264717	17.493400
3520.059300	17.560100
3535.311833	16.593300
3526.802267	17.093500
3531.378700	16.813700
3535.838600	16.545200
3533.678750	16.595900
3528.373683	16.888800
3531.202383	16.683900
3526.975650	16.901900
3527.000667	16.871500
3524.132500	17.038700
3529.847150	16.524200
3528.355567	16.588900
3536.733000	16.065500
3531.221900	16.391600
3518.891567	16.993600
3522.000317	16.762000
3522.831117	16.650400
3523.324750	16.612700
3513.010433	17.224500
3515.792217	17.057500
3522.761867	16.598500
3511.610633	17.199300
3514.370317	16.994800
3510.810533	17.134800
3514.182233	16.920000
3512.863117	17.011300
3509.606083	17.217900
3520.131967	16.529500
3522.025567	16.386100
3513.073650	16.900100
3513.048183	16.897500
3517.452317	16.481200
3508.063500	17.021300
3511.285950	16.784900
3511.917650	16.725800
3508.335850	16.940300
3509.757250	16.845200
3499.765900	17.262500
3508.271800	16.759400
3509.293283	16.672800
3511.782767	16.523800
3505.290767	16.807000
3499.694817	17.086600
3505.936000	16.648700
3505.147383	16.676700
3511.190633	16.279500
3510.612183	16.303500
3500.869500	16.817300
3503.004383	16.584300
3493.350050	17.138000
3498.693967	16.775500
3496.490517	16.909600
3499.117167	16.762000
3497.553400	16.863200
3500.114767	16.564000
3495.237750	16.804700
3485.919800	17.330600
3501.142767	16.414300
3497.499850	16.535300
3493.296817	16.779700
3486.391467	17.091700
3488.985750	16.937900
3497.604300	16.425200
3492.639100	16.722800
3485.731350	16.992800
3485.184433	17.016000
3485.992317	16.977100
3500.661817	16.086700
3491.330317	16.468300
3481.683850	17.035400
3490.319200	16.502600
3486.518900	16.709600
3491.681333	16.368600
3485.524133	16.735500
3488.779650	16.532000
3489.764700	16.480100
3487.433833	16.553700
3482.348483	16.742400
3479.174700	16.927100
3480.973183	16.828200
3481.775750	16.777400
3486.852750	16.334300
3486.131300	16.364300
3478.595767	16.743100
3478.345983	16.750800
3480.467933	16.602600
3477.322283	16.817100
3485.261183	16.217100
3478.089067	16.615900
3465.187767	17.321500
3472.458767	16.890100
3471.747917	16.939600
3475.393933	16.721400
3487.383867	15.941200
3476.580150	16.581200
3476.798450	16.587200
3478.152117	16.496500
3475.135100	16.631900
3476.930583	16.470000
3470.020817	16.874800
3470.854733	16.797000
3471.160683	16.778100
3481.547350	16.161800
3479.590667	16.186600
3474.539767	16.383700
3472.207483	16.500600
3473.471683	16.378200
3466.155850	16.819700
3465.348467	16.840000
3474.726017	16.273000
3467.501317	16.543000
3462.320350	16.829900
3472.955467	16.189000
3463.489217	16.749400
3468.650450	16.324100
3461.036650	16.733300
3456.279033	16.989300
3463.401517	16.563400
3473.405033	15.939000
3464.596700	16.462700
3463.208333	16.370400
3462.034983	16.421700
3460.326533	16.520700
3467.640833	16.074600
3459.028300	16.545200
3458.221550	16.473800
3457.796633	16.501500
3455.374567	16.609600
3454.611683	16.644000
3458.862750	16.399400
3458.325250	16.412300
3460.258700	16.190000
3452.223133	16.644000
3458.149050	16.235600
3458.922500	16.172300
3455.404950	16.349000
3454.015867	16.440100
3448.634550	16.699100
3445.735700	16.859900
3448.902617	16.599400
3444.359167	16.883200
3452.110500	16.424600
3452.651700	16.379900
3451.131333	16.347300
3445.911250	16.613300
3451.862533	16.216500
3447.836333	16.450200
3447.524950	16.444100
3444.957767	16.587400
3438.533483	16.856400
3450.804417	16.075600
3448.187133	16.206000
3449.099200	16.137200
3445.437383	16.327200
3440.669617	16.469500
3435.200283	16.764000
3433.204067	16.831600
3431.464283	16.924200
3435.203833	16.702200
3441.378400	16.336100
3446.579417	15.941500
3445.150233	15.994800
3454.715150	15.366800
3439.372533	16.247400
3451.269417	15.504700
3440.957900	16.120700
3440.435467	16.030900
3429.287450	16.623500
3436.191717	16.143100
3425.424250	16.808600
3429.147317	16.593100
3429.631567	16.549300
3430.322283	16.441200
3436.365267	15.952300
3432.055517	16.202800
3427.673683	16.461300
3428.073033	16.419300
3430.189000	16.181600
3427.409550	16.329500
3429.989333	16.096800
3434.682033	15.788400
3422.208067	16.509400
3433.639300	15.817100
3428.775783	15.945000
3426.881900	16.047800
3429.599500	15.829400
3419.952300	16.401800
3420.864000	16.321400
3428.673450	15.847100
3427.494767	15.718300
3434.638300	15.285800
3420.016183	16.104600
3408.407733	16.811100
3410.657800	16.582700
3417.477083	16.110000
3413.931000	16.294700
3413.708817	16.291600
3412.855950	16.321400
3413.377383	16.332600
3406.863417	16.670200
3405.089383	16.693800
3403.229767	16.824100
3414.687533	16.134900
3417.042400	16.002200
3415.215850	16.109300
3409.925450	16.415000
3424.401400	15.431900
3417.794600	15.783200
3419.426317	15.687700
3421.389367	15.529000
3413.611400	15.855500
3406.455050	16.242800
3411.525633	15.882900
3409.158233	16.014600
3402.904967	16.383700
3408.131483	16.074000
3414.277567	15.517900
3410.763433	15.735300
3407.267550	15.925400
3414.737617	15.457300
3404.207550	15.936800
3401.475300	16.062500
3405.971417	15.796900
3400.569917	16.118800
3399.943267	16.101100
3397.357083	16.283400
3396.062700	16.322900
3406.347583	15.664800
3406.004567	15.656500
3396.420233	16.192800
3395.949417	16.213900
3402.486500	15.814700
3407.737000	15.479600
3403.153950	15.583400
3396.912967	15.924100
3394.949750	15.968300
3402.764033	15.475200
3400.473667	15.604000
3402.778550	15.480500
3387.604433	16.203900
3391.634900	15.972800
3388.579617	16.171600
3388.270367	16.206700
3397.923883	15.493500
3391.801500	15.821600
3387.379800	16.034000
3389.884333	15.871800
3395.081050	15.552200
3389.256683	15.901200
3387.695650	15.916100
3391.889417	15.566200
3393.770667	15.421900
3391.362750	15.538400
3384.269867	15.976000
3386.297600	15.865100
3390.622983	15.582300
3387.835417	15.680800
3390.686917	15.497200
3390.203883	15.522600
3386.351750	15.734000
3384.181367	15.729700
3388.608833	15.435000
3390.912167	15.220000
3387.518150	15.408800
3383.868583	15.591600
3375.909933	16.079400
3376.261367	15.920200
3370.993217	16.206700
3375.097600	15.928100
3377.196867	15.815800
3373.231650	16.063400
3374.360317	16.004800
3377.952683	15.699900
3377.457333	15.748800
3381.255150	15.478700
3377.748200	15.695300
3382.325533	15.288600
3382.335067	15.216700
3384.592533	15.031200
3382.495400	15.104600
3376.461150	15.458600
3367.800267	15.966700
3372.193500	15.655700
3371.657000	15.564800
3379.367583	15.078000
3375.584233	15.264600
3373.318300	15.389300
3372.444717	15.393100
3370.248150	15.551600
3371.578133	15.311400
3367.649950	15.516200
3371.011450	15.300800
3371.606317	15.277300
3369.436283	15.302100
3367.911917	15.361000
3353.595300	16.109000
3356.070317	15.931300
3363.146017	15.499900
3362.380683	15.576000
3358.804317	15.697300
3353.734500	15.998000
3351.326767	16.143100
3360.725667	15.565600
3348.326133	16.106400
3350.242767	15.987700
3359.955400	15.383000
3360.526800	15.310100
3342.454233	16.380300
3354.509683	15.621900
3354.234817	15.635800
3353.054467	15.705400
3350.487550	15.835400
3349.322083	15.763800
3344.794200	16.028600
3349.259183	15.770700
3356.479250	15.312800
3353.753667	15.411100
3352.925450	15.437600
3353.681950	15.371300
3357.580983	15.127500
3352.567250	15.368900
3352.642783	15.374700
3350.431633	15.367500
3349.328433	15.388500
3340.007583	15.964800
3342.713600	15.738200
3340.900617	15.841000
3343.180850	15.695300
3344.858683	15.499200
3346.138083	15.336000
3345.408350	15.359600
3342.467700	15.540200
3340.415533	15.609900
3339.608450	15.529100
3338.335050	15.581900
3339.827100	15.428000
3339.896917	15.403600
3342.784817	15.225700
3337.507400	15.542900
3339.220500	15.277400
3334.843867	15.520000
3340.839067	15.117700
3343.726883	14.906700
3334.430667	15.474700
3334.976700	15.444500
3327.807100	15.704600
3328.916133	15.625200
3341.608733	14.828400
3332.759050	15.353300
3335.408350	15.049700
3327.284000	15.485300
3327.004000	15.440300
3327.387750	15.425600
3322.381500	15.713000
3329.943550	15.271100
3332.560200	15.096200
3325.180817	15.395800
3321.463967	15.607300
3319.156083	15.699300
3321.040983	15.601800
3330.245950	15.055400
3328.075767	15.167500
3328.016733	15.008400
3325.307767	15.151000
3315.698983	15.709200
3315.852750	15.723500
3314.196400	15.713600
3310.690233	15.899700
3318.907683	15.343800
3327.949817	14.804500
3331.265817	14.620000
3318.646033	15.337800
3323.122500	14.921000
3319.911483	15.075900
3324.296517	14.781700
3318.278200	15.104000
3318.550100	15.079100
3309.121783	15.645900
3312.656517	15.391300
3311.104167	15.367900
3313.894267	15.207100
3315.700717	15.093400
3304.455700	15.770300
3307.870267	15.492700
3316.540600	14.924900
3313.585933	15.010200
3307.615767	15.376600
3316.463683	14.848500
3313.528417	15.012400
3303.459900	15.479000
3300.533067	15.643600
3306.887883	15.201600
3312.391700	14.852000
3312.759883	14.835600
3312.260033	14.847900
3301.683750	15.286400
3308.972683	14.843700
3310.533500	14.768900
3290.517300	15.974000
3293.207267	15.713800
3294.786933	15.587100
3295.867150	15.499400
3290.940433	15.759900
3301.216700	15.136100
3298.980200	15.266900
3296.976217	15.348100
3295.655700	15.376100
3295.454883	15.352200
3300.979783	14.980800
3294.938733	15.345900
3304.019000	14.794700
3298.003250	15.145700
3291.809217	15.383200
3296.285267	15.087100
3296.595650	15.052100
3292.753967	15.268900
3296.058283	15.066900
3292.924350	15.253700
3290.527817	15.205000
3291.958933	15.131700
3286.323833	15.455100
3289.571433	15.261900
3290.087500	15.074900
3286.226150	15.274400
3289.038633	15.099300
3283.671800	15.420500
3282.491133	15.335400
3280.651950	15.428600
3277.823583	15.571800
3279.158450	15.461900
3277.893750	15.450800
3282.669300	15.175400
3287.751683	14.864100
3284.596483	15.061200
3283.725067	15.076900
3288.032817	14.712700
3282.078500	15.068600
3278.198217	15.289000
3278.854283	15.231300
3274.405867	15.372700
3275.842867	15.274000
3271.873417	15.446800
3278.953700	15.027500
3284.456850	14.694200
3281.268967	14.870800
3281.045650	14.816900
3270.864983	15.383700
3274.511550	15.136100
3272.047100	15.298700
3272.196083	15.312300
3275.638433	15.086400
3277.086733	14.957700
3279.898600	14.728100
3284.952000	14.433200
3276.002933	14.932800
3275.948433	14.877600
3277.304567	14.668900
3273.649233	14.848800
3278.432033	14.511600
3268.214917	15.112300
3270.910867	14.924200
3262.869467	15.380200
3265.056917	15.132100
3267.294483	14.976600
3262.541850	15.204200
3266.365917	14.983600
3262.151250	15.185600
3264.380750	15.041600
3264.910800	14.953100
3268.066067	14.722900
3259.544700	15.231500
3262.916400	14.993000
3261.343100	15.001400
3254.259833	15.416700
3260.825133	14.993400
3256.234283	15.252000
3253.502450	15.368900
3254.230417	15.340300
3249.936350	15.455600
3252.175817	15.290800
3270.061400	14.145800
3262.085800	14.610200
3257.884817	14.827000
3255.685933	14.923800
3255.791967	14.827900
3242.066483	15.530400
3254.451133	14.804400
3247.486317	15.208900
3251.977967	14.852800
3241.745500	15.395000
3238.797650	15.560000
3235.025250	15.725900
3240.523867	15.375400
3246.751817	15.014500
3247.947100	14.943500
3245.033050	15.012500
3249.555417	14.733400
3253.590000	14.433200
3249.442967	14.672200
3242.658067	15.040300
3241.640233	15.096900
3256.989167	14.101900
3241.600850	14.994200
3238.334700	15.115100
3245.208017	14.692600
3237.203167	15.165400
3232.764300	15.429800
3238.768250	15.003200
3240.324167	14.807200
3237.729783	14.968200
3230.053533	15.436800
3232.885600	15.245000
3230.667383	15.339300
3237.880317	14.888800
3234.964067	15.027100
3242.243800	14.566100
3232.326683	15.138000
3238.305867	14.762200
3241.144400	14.432000
3223.731917	15.420100
3228.295883	15.089400
3219.467083	15.618600
3231.460617	14.905900
3238.816500	14.450300
3230.373900	14.747900
3229.374750	14.789900
3220.520267	15.300400
3227.600017	14.869900
3224.280517	14.923300
3226.473467	14.747200
3232.907933	14.349300
3222.162567	14.937400
3204.592500	16.006700
3217.677533	15.204900
3219.399967	15.046000
3210.550583	15.489600
3209.715433	15.516900
3213.831400	15.240200
3217.952267	14.983600
3223.415350	14.638700
3218.101183	14.966100
3204.305383	15.616500
3214.240750	15.027200
3207.345983	15.431700
3209.710583	15.313500
3205.369300	15.462500
3219.748817	14.562100
3220.310700	14.475200
3222.930067	14.314600
3219.205417	14.517100
3217.968833	14.584200
3219.302867	14.374900
3215.218533	14.543700
3216.808783	14.395500
3214.855383	14.503200
3206.063617	14.995900
3203.903017	15.133600
3212.003267	14.548600
3212.199783	14.550600
3199.935033	15.282900
3203.896833	15.035400
3205.810633	14.904300
3208.828783	14.674500
3207.510033	14.721300
3209.814000	14.552900
3210.995533	14.469900
3215.969133	14.141100
3216.858950	14.061200
3210.997433	14.356500
3202.664150	14.810900
3202.761400	14.610500
3202.906017	14.583400
3197.427383	14.897400
3199.157750	14.803400
3195.155467	14.855200
3195.932583	14.801100
3202.462717	14.413600
3197.228383	14.697600
3193.754933	14.850900
3193.096733	14.874600
3192.131017	14.893000
3186.592900	15.231200
3184.875783	15.327000
3190.027150	15.016100
3188.613083	14.967300
3188.748867	14.884300
3184.896400	15.074000
3189.785267	14.710600
3190.611467	14.650000
3195.045400	14.379500
3184.266333	14.968200
3188.022567	14.650900
3194.676817	14.249200
3183.553850	14.903000
3184.322833	14.796600
3185.426700	14.617700
3189.554233	14.355000
3181.705550	14.780300
3176.470833	15.098100
3185.311733	14.541300
3188.270183	14.370300
3180.840933	14.670600
3183.884067	14.450500
3181.904500	14.488700
3179.763883	14.609700
3189.681833	14.003100
3182.146817	14.463400
3180.388883	14.389200
3184.836583	14.124900
3187.667650	13.957700
3181.291967	14.306800
3179.890183	14.253300
3179.549633	14.186100
3166.411300	14.931500
3168.196133	14.816400
3170.650367	14.611600
3177.193817	14.279200
3171.242800	14.607200
3176.477017	14.197600
3180.494917	13.911100
3171.152150	14.384300
3167.517150	14.606300
3162.417883	14.919300
3165.819650	14.707700
3173.176317	14.192500
3176.271350	14.001500
3159.182367	14.976400
3164.568017	14.620300
3169.036150	14.350400
3163.486983	14.674500
3161.584783	14.630400
3171.884533	14.001300
3160.439600	14.657000
3160.792767	14.646100
3161.808483	14.452500
3156.623483	14.692200
3172.205250	13.683200
3163.096033	14.251800
3157.249967	14.601100
3160.664617	14.413600
3158.540650	14.533400
3166.111433	14.003700
3165.438100	14.019500
3157.083450	14.443100
3163.694500	14.049500
3155.849567	14.536300
3155.510550	14.516300
3157.543550	14.252000
3160.996267	14.050300
3151.122667	14.631700
3153.052100	14.501900
3157.621917	14.142400
3156.244717	14.195800
3149.676433	14.545500
3164.481017	13.652500
3153.468067	14.277400
3150.780333	14.436000
3156.492850	13.955900
3143.994317	14.662000
3142.392717	14.692000
3144.449983	14.573100
3153.088350	14.038400
3157.080400	13.802600
3153.200983	13.872000
3148.314067	14.119900
3154.266533	13.761900
3147.029350	14.181500
3152.495083	13.754400
3144.417517	14.143000
3151.247867	13.747900
3143.363767	14.146000
3148.732033	13.808700
3147.387633	13.886100
3145.399483	14.007300
3151.196483	13.580400
3138.370667	14.325100
3137.992417	14.337700
3138.497083	14.307300
3137.422350	14.201300
3133.991900	14.363300
3137.756833	14.079600
3136.755017	14.108800
3134.897783	14.199000
3136.609200	14.090300
3144.031450	13.520600
3141.073767	13.643200
3143.317783	13.457700
3143.368183	13.405200
3133.449367	13.950700
3132.428217	14.028100
3132.286667	13.962700
3128.144583	14.130300
3131.665267	13.887700
3134.992817	13.667500
3132.354217	13.828600
3123.413350	14.336600
3130.711767	13.858900
3129.503183	13.914000
3127.464650	14.009600
3129.163133	13.824300
3122.724533	14.221800
3124.527550	14.100200
3123.232683	14.183100
3124.899200	14.038100
3125.022300	14.029400
3137.478983	13.284600
3122.859650	14.160500
3120.162383	14.094600
3120.785183	13.983900
3115.641167	14.223400
3119.836633	13.993800
3122.086000	13.818800
3112.514117	14.382700
3115.846200	14.129000
3115.561083	14.109900
3119.423867	13.819600
3114.123100	14.147900
3118.184750	13.883300
3122.765767	13.561900
3111.449083	14.177400
3108.779817	14.280100
3109.793817	14.225800
3105.832867	14.440000
3110.148933	14.172000
3108.440617	14.124100
3105.774350	14.275100
3114.649467	13.671700
3109.580467	13.957900
3110.752583	13.850700
3101.856417	14.400400
3108.069383	13.862100
3101.268950	14.243000
3103.722083	14.075100
3104.033567	14.077300
3106.117117	13.841800
3104.001817	13.898800
3102.748217	13.919200
3104.508917	13.819600
3099.539200	14.114300
3112.031500	13.336100
3101.882217	13.798600
3105.998917	13.518100
3090.975067	14.386000
3095.657183	14.101500
3093.096617	14.244400
3092.012783	14.235900
3097.187567	13.914400
3101.852583	13.609800
3100.773600	13.658300
3094.135083	14.045100
3098.264700	13.783700
3100.320033	13.494000
3097.443917	13.637500
3087.020683	14.186700
3096.404633	13.610100
3097.584683	13.530000
3102.686300	13.218800
3089.232083	13.892700
3089.927583	13.834500
3088.874800	13.817300
3086.360900	13.967900
3088.506933	13.832700
3083.783433	14.108700
3082.551600	14.133200
3083.557400	14.038100
3079.095033	14.258400
3085.689317	13.839400
3079.412750	14.169200
3078.687200	14.218700
3082.081250	13.967300
3077.673883	14.220300
3095.518367	13.129000
3084.206817	13.801900
3079.284383	14.009700
3077.154300	14.051300
3080.501667	13.803100
3075.027333	14.084400
3071.774250	14.263400
3070.430917	14.329000
3078.578033	13.779000
3078.130900	13.652000
3082.793100	13.388000
3081.813133	13.396500
3083.898700	13.234700
3078.626050	13.505900
3076.195900	13.628600
3078.385400	13.364600
3072.644517	13.692100
3064.852167	14.169700
3073.633167	13.629700
3070.865317	13.665400
3069.657967	13.689700
3073.537150	13.359800
3071.298100	13.510100
3063.438933	13.983900
3070.638350	13.538300
3074.386533	13.200300
3067.036117	13.565800
3061.040750	13.866800
3062.990583	13.748100
3064.064850	13.665200
3064.740983	13.642800
3063.451217	13.637500
3056.059517	13.982200
3059.600283	13.770900
3045.792583	14.586000
3057.455983	13.893000
3054.818967	13.906300
3059.710550	13.609400
3049.321033	14.198100
3053.376283	13.971000
3054.879367	13.852300
3054.129583	13.887000
3044.713783	14.381700
3056.508483	13.686000
3068.751433	12.917400
3062.144150	13.275800
3055.007183	13.629000
3057.122733	13.444800
3058.915967	13.258300
3046.514450	13.997300
3053.272267	13.585300
3047.262317	13.930300
3053.515717	13.431400
3047.371767	13.745200
3051.395417	13.476700
3036.433550	14.329400
3046.230100	13.714700
3043.243517	13.910800
3041.647183	13.939500
3048.196000	13.443500
3041.578167	13.826200
3036.638717	14.070700
3042.805050	13.702700
3040.447633	13.833000
3041.337017	13.758400
3042.469567	13.602700
3046.744200	13.329500
3043.217700	13.544900
3040.792617	13.659400
3042.770017	13.511200
3039.318933	13.725600
3038.413117	13.779700
3044.223933	13.393800
3039.415717	13.416700
3024.949200	14.257100
3039.401983	13.341600
3035.782200	13.528100
3035.704817	13.462900
3035.894483	13.475400
3033.775483	13.588500
3041.475317	13.116400
3036.928650	13.229000
3032.867383	13.449600
3022.334133	14.053500
3034.704900	13.315700
3027.229567	13.677100
3031.748567	13.350100
3019.105033	14.045100
3022.128600	13.852100
3024.381000	13.725200
3020.219817	13.985200
3024.510617	13.674700
3018.721717	13.883800
3023.274433	13.596300
3016.123350	13.967600
3024.135450	13.505300
3021.537333	13.653900
3020.045217	13.747300
3019.529350	13.637300
3025.060150	13.280000
3022.937283	13.384200
3021.507250	13.490600
3024.355117	13.203100
3026.334483	13.025100
3022.636883	13.143000
3020.849950	13.241600
3016.245883	13.521300
3025.257033	12.980100
3030.996850	12.534500
3026.023167	12.832600
3019.528600	13.195400
3015.222417	13.441300
3012.966467	13.516600
3014.525500	13.358300
3017.757300	13.121300
3018.331300	13.031300
3021.313917	12.832000
3015.548067	13.173700
3018.186767	13.006600
3013.062067	13.135600
3008.999333	13.355400
3015.373183	12.866400
3014.643717	12.904300
3005.735550	13.422500
3001.588983	13.671000
2997.024517	13.796800
3002.149633	13.479300
3005.360317	13.275400
2996.820833	13.753500
3000.114917	13.492600
2996.634633	13.683900
3010.282833	12.786300
3005.592017	13.061800
2999.376783	13.432500
3003.523317	13.191100
2994.516450	13.552100
3000.151517	13.194100
3000.690100	13.153400
2999.879733	13.186200
2995.546383	13.410000
3003.017017	12.846400
3002.271467	12.860500
2995.570467	13.211800
2994.866700	13.222400
3000.148433	12.882300
2993.059517	13.302700
2989.583850	13.511300
2997.881400	12.994400
2983.321100	13.734200
2986.583317	13.536700
2987.479367	13.502500
2990.431200	13.338500
2986.433733	13.438500
2989.263467	13.230100
2978.570900	13.811300
2983.232267	13.510900
2980.842350	13.643900
2986.720567	13.273000
2985.823700	13.215500
2991.094400	12.832700
2981.693567	13.321300
2989.216517	12.885100
2989.590917	12.848500
2987.592550	12.956900
2982.010700	13.237400
2978.193117	13.411300
2983.602783	13.059000
2982.851750	13.113500
2979.596167	13.188100
2976.742867	13.304200
2972.949783	13.538100
2982.327083	12.909600
2981.232317	12.943000
2979.777100	13.036700
2976.930233	13.193700
2973.039467	13.279900
2978.524483	12.919200
2977.450017	12.900700
2975.655233	12.998100
2979.715683	12.737100
2971.379900	13.223900
2981.915750	12.504200
2978.710467	12.695800
2986.386250	12.213800
2968.436933	13.263900
2973.616933	12.882000
2974.581933	12.800100
2977.365800	12.610100
2975.227833	12.709200
2972.833700	12.818600
2968.128300	13.085900
2965.302133	13.059000
2962.085967	13.268200
2964.473283	13.119600
2966.862667	12.975100
2961.653233	13.215000
2963.477250	13.000700
2964.296883	12.917400
2958.487200	13.259000
2955.477183	13.418700
2964.522183	12.849900
2963.255233	12.896400
2960.376200	12.954800
2961.311150	12.880700
2960.721217	12.863200
2958.592500	12.976700
2957.752100	13.013000
2950.202917	13.443700
2953.687117	13.173400
2961.489517	12.690400
2955.781350	13.004000
2951.266000	13.263200
2950.591733	13.154700
2962.083917	12.421600
2939.940567	13.706800
2947.054450	13.257800
2953.680600	12.841700
2946.436767	13.275400
2949.513967	12.994000
2945.912000	13.138400
2941.448350	13.318700
2946.195833	13.048500
2946.260700	13.036400
2946.034233	13.056000
2947.300883	12.927000
2942.256617	13.126900
2935.401383	13.505700
2940.659717	13.182100
2944.210267	12.949600
2942.198583	13.080600
2943.841500	12.969500
2932.648583	13.569600
2937.355383	13.290600
2941.344883	13.041600
2938.997850	13.177100
2942.289000	12.832700
2932.101100	13.417400
2933.434317	13.268800
2928.645583	13.575300
2936.029317	13.108000
2938.259200	12.961100
2932.926200	13.173200
2939.457000	12.756200
2933.211767	13.055500
2939.711050	12.669800
2937.927350	12.749600
2935.861217	12.876100
2946.450600	12.088700
2937.517833	12.591600
2939.715433	12.471600
2932.574850	12.884600
2934.936633	12.707100
2926.593950	13.043900
2919.966583	13.415700
2923.620967	13.165600
2924.318383	13.125300
2926.005967	13.020100
2927.409333	12.944700
2923.786317	13.044400
2925.764867	12.884500
2931.481267	12.489100
2932.892883	12.397500
2927.512633	12.721500
2930.371700	12.534500
2922.714467	12.857500
2919.122933	13.034400
2923.085583	12.781800
2926.855700	12.541700
2915.610450	13.083800
2918.956317	12.832300
2918.263367	12.761800
2919.003733	12.710400
2913.851967	13.006600
2915.610800	12.892400
2916.169183	12.820200
2919.826550	12.558800
2920.205033	12.471600
2921.134617	12.402100
2924.143983	12.204900
2916.830433	12.612900
2920.467317	12.317500
2904.465900	13.135700
2914.267567	12.550300
2913.368783	12.591900
2909.407133	12.828300
2906.666467	12.909700
2903.079383	13.110000
2903.256483	12.980400
2903.451450	12.976400
2906.340083	12.796800
2914.147617	12.330700
2907.428667	12.584200
2901.552833	12.908700
2911.795350	12.215900
2903.480917	12.700900
2900.012067	12.924400
2901.840250	12.803300
2899.543833	12.837000
2905.535017	12.398200
2898.546567	12.793300
2894.546300	13.007900
2893.780567	13.055500
2892.967683	13.104900
2898.394367	12.702400
2893.490517	12.901000
2891.575567	13.009600
2895.462483	12.777900
2888.751317	13.123600
2893.473317	12.722800
2895.312650	12.606200
2892.187367	12.712900
2886.025200	13.092500
2889.409350	12.855500
2887.450100	12.979700
2888.417383	12.785700
2887.191450	12.841400
2889.142233	12.655200
2894.303700	12.329600
2884.781583	12.893100
2885.952100	12.803600
2883.663350	12.767900
2887.438383	12.565500
2887.506100	12.525800
2888.745767	12.444700
2885.266150	12.572000
2886.737050	12.409400
2882.675533	12.619200
2882.377767	12.619000
2880.907233	12.703200
2891.783950	12.017900
2891.552883	11.985600
2882.361867	12.389800
2882.771033	12.357000
2886.723617	12.092200
2883.562767	12.246100
2879.444550	12.379700
2881.988083	12.208500
2881.453700	12.191000
2875.317450	12.545600
2873.363767	12.677500
2873.770983	12.627600
2874.936167	12.549100
2879.734350	12.261800
2879.894900	12.006500
2873.656500	12.392300
2869.665850	12.587000
2869.897933	12.572100
2873.891017	12.249100
2874.219317	12.161500
2865.595567	12.641200
2873.201917	12.184000
2875.362650	12.038300
2877.561667	11.901400
2873.816583	12.045300
2869.905583	12.175800
2872.830850	11.975600
2875.708167	11.800900
2862.082833	12.599100
2862.781283	12.432600
2860.535733	12.542400
2863.347017	12.398200
2865.471183	12.255300
2867.700983	12.028200
2869.613900	11.909900
2857.072717	12.585100
2865.043833	12.089400
2864.896567	12.041500
2867.581833	11.871600
2856.622533	12.486300
2861.245950	12.218000
2857.005867	12.362500
2855.534317	12.387700
2864.809100	11.775800
2864.825583	11.735400
2845.949200	12.851900
2845.562133	12.889200
2847.835300	12.555500
2852.205017	12.327400
2842.360300	12.912200
2844.339150	12.796100
2846.518350	12.618500
2847.378700	12.437900
2842.373083	12.737700
2851.832750	12.116600
2851.168267	12.140500
2837.391233	12.969900
2840.629450	12.763400
2853.138217	11.867800
2845.621033	12.286800
2845.675583	12.206700
2832.859417	12.973000
2839.197117	12.581200
2847.289650	12.092300
2848.473717	11.882800
2837.607500	12.521600
2849.343083	11.831700
2839.241550	12.428900
2838.056650	12.371300
2842.344933	12.063000
2844.110183	11.871600
2838.970850	12.173900
2839.326517	12.172600
2833.984917	12.476200
2838.887917	12.089800
2839.088550	11.945900
2833.455267	12.255700
2838.230000	11.945900
2834.861500	12.123500
2834.345817	12.138400
2835.096317	12.048100
2832.186667	12.094000
2826.766700	12.412400
2835.038700	11.908400
2830.020450	12.206900
2826.969483	12.248400
2835.900450	11.702300
2831.276650	11.885300
2830.506883	11.941200
2831.845583	11.871300
2825.953667	12.231100
2825.944067	12.082900
2822.540567	12.270700
2824.182333	12.097500
2817.733633	12.486000
2810.982783	12.885600
2812.188050	12.827600
2823.845167	12.094000
2824.258650	12.013700
2815.899933	12.503100
2816.286850	12.453200
2810.931683	12.731400
2814.823117	12.463000
2821.523583	12.031800
2819.593017	12.091000
2822.122250	11.917100
2824.274467	11.758300
2820.715817	11.907400
2813.500083	12.222900
2819.490367	11.837800
2818.608783	11.833800
2808.885667	12.398200
2805.686983	12.590700
2812.949083	12.156900
2820.754183	11.502600
2810.845783	12.084300
2804.284983	12.479100
2808.194967	12.240100
2810.030133	11.995800
2813.232917	11.752000
2814.101050	11.645000
2808.265233	11.979900
2806.125517	12.094000
2810.239550	11.850800
2801.140267	12.353200
2807.171917	11.952700
2796.550400	12.566000
2803.623617	12.133300
2804.893367	12.026500
2804.291200	12.031700
2808.213617	11.716300
2804.252650	11.839400
2802.096750	11.942300
2792.739267	12.438400
2798.944267	12.077800
2795.555417	12.265900
2803.287000	11.773100
2793.683767	12.194200
2796.486083	12.019800
2800.897267	11.716300
2794.393650	12.098000
2788.564983	12.288000
2786.241867	12.385900
2791.562917	12.060700
2793.589883	11.937300
2791.248150	12.017900
2792.852417	11.903800
2787.917167	12.165100
2785.561300	12.290600
2787.066433	12.146400
2781.319833	12.480900
2796.273917	11.581600
2793.017633	11.765700
2781.653617	12.342700
2788.619083	11.852100
2792.140050	11.609300
2787.284117	11.900200
2780.669067	12.225100
2784.892200	11.873000
2775.519833	12.400800
2786.310117	11.695300
2782.912050	11.880200
2777.319283	12.177900
2776.585167	12.244300
2777.986933	12.025800
2780.765750	11.841500
2775.474917	12.083500
2777.196350	12.004100
2776.645967	12.028600
2766.806883	12.628200
2776.214600	11.984900
2774.412733	12.096300
2768.797083	12.419100
2776.554667	11.967400
2771.664250	12.148700
2767.727733	12.320100
2785.078683	11.250300
2776.394517	11.698000
2773.258483	11.856600
2773.655333	11.817300
2768.352467	12.099700
2767.322700	12.045800
2767.467217	12.028600
2776.276150	11.426600
2771.263383	11.711100
2759.683417	12.388300
2762.227500	12.239900
2764.953217	12.010000
2766.566833	11.913000
2772.011717	11.583100
2760.767433	12.245700
2752.801617	12.661000
2756.056950	12.447800
2763.484300	11.982800
2761.601083	12.064500
2778.171317	11.036200
2771.124550	11.444900
2765.370650	11.606600
2757.730633	12.006300
2756.401383	11.996100
2758.027050	11.870000
2760.506567	11.698600
2765.459433	11.388000
2755.410450	11.900600
2762.921867	11.358400
2764.059367	11.278000
2754.993933	11.800200
2746.691833	12.231000
2757.374417	11.503900
2756.444417	11.550700
2751.780050	11.775200
2751.993683	11.735100
2747.115333	12.012300
2750.821633	11.801400
2745.607800	11.958200
2744.484433	11.998800
2758.032617	11.104000
2749.009150	11.628200
2745.054667	11.869000
2749.411600	11.591900
2734.732967	12.396100
2730.632967	12.630100
2748.244583	11.552700
2750.808933	11.395200
2748.315850	11.431700
2746.673633	11.460000
2744.422650	11.459300
2752.070417	11.019700
2745.453767	11.401600
2740.372600	11.706500
2737.330000	11.811500
2741.639050	11.466500
2749.073017	10.981300
2742.426317	11.327500
2742.617317	11.294800
2736.069217	11.661100
2741.681667	11.320300
2735.069067	11.682400
2733.933333	11.751300
2739.147133	11.364900
2731.840683	11.785200
2732.275800	11.765900
2733.617050	11.663900
2733.312867	11.524000
2742.153483	10.969800
2725.923600	11.921600
2726.584483	11.870700
2728.566717	11.600200
2731.722617	11.371300
2724.560483	11.719800
2720.691767	11.965900
2728.528400	11.490800
2731.823967	11.294500
2728.246517	11.423800
2731.226933	11.140500
2722.162983	11.628900
2735.181017	10.827100
2729.310000	11.158400
2731.430283	11.016300
2726.525600	11.259500
2732.661100	10.736300
2723.439717	11.273800
2729.103467	10.913800
2724.314233	11.191800
2717.638000	11.543900
2720.109500	11.389700
2724.883600	11.040800
2719.551067	11.339500
2715.845333	11.563200
2715.563950	11.592200
2712.012283	11.646000
2715.380733	11.410800
2710.684933	11.609700
2705.269283	11.939100
2706.760667	11.821900
2711.759733	11.537400
2700.486950	12.069500
2695.963333	12.320400
2700.191450	12.082700
2706.404267	11.708500
2707.241167	11.627200
2707.803933	11.557200
2707.692400	11.572100
2704.073417	11.770600
2707.710300	11.558300
2711.935100	11.275100
2700.329200	11.887400
2700.422017	11.737300
2704.941817	11.436400
2704.461683	11.410500
2703.522667	11.454100
2703.409900	11.458700
2696.448467	11.862400
2699.250700	11.522300
2697.760133	11.612700
2698.712650	11.537000
2701.489600	11.354000
2701.019617	11.220400
2693.302950	11.632400
2695.428550	11.427800
2696.970800	11.336600
2705.116683	10.849800
2701.134850	11.078900
2685.794350	11.866700
2689.483750	11.581100
2689.453233	11.517000
2685.312500	11.738900
2687.958933	11.569500
2688.302350	11.554400
2697.358633	10.887600
2691.431700	11.209700
2691.323033	11.183400
2689.422633	11.295300
2690.129933	11.181300
2689.614717	11.107900
2682.774967	11.488000
2678.663933	11.714700
2687.473750	11.179100
2685.673083	11.236200
2681.879033	11.421000
2684.611633	11.124600
2674.203600	11.713100
2680.482467	11.266300
2682.700333	11.134800
2677.037683	11.473800
2670.287800	11.895500
2677.256967	11.302000
2675.765633	11.396400
2674.144917	11.492500
2673.873450	11.505200
2682.564133	10.919100
2682.014400	10.911200
2673.435500	11.363900
2685.003883	10.648800
2664.515333	11.871600
2668.517133	11.614200
2675.295300	11.135900
2674.989483	11.082600
2669.076383	11.378700
2667.301683	11.414700
2668.049417	11.344300
2671.976633	11.093700
2661.442700	11.642900
2662.366600	11.508800
2664.246733	11.393400
2662.526100	11.490800
2667.813000	11.156600
2663.380850	11.283800
2663.984017	11.258800
2661.407850	11.367500
2660.827667	11.424700
2651.998000	11.942900
2653.608050	11.850800
2666.124717	11.042500
2664.473950	11.134400
2660.579700	11.311400
2658.944767	11.422600
2654.658083	11.676300
2663.025750	11.165600
2668.299600	10.659500
2655.503467	11.399800
2662.931633	10.929600
2647.943283	11.817000
2659.031867	11.032000
2658.195283	11.019300
2642.110317	11.940400
2641.865450	11.937800
2650.201600	11.459300
2647.276150	11.618000
2649.588967	11.437300
2646.877683	11.463900
2649.536000	11.295800
2644.541950	11.536400
2644.950767	11.526700
2642.662733	11.658000
2651.987583	11.086200
2633.080017	12.054100
2635.488750	11.906600
2646.562933	11.245800
2634.922700	11.949200
2647.466183	11.084100
2641.809317	11.361400
2645.046117	11.076400
2640.977883	11.297400
2650.985450	10.688300
2645.762900	10.978100
2639.065050	11.275700
2634.515733	11.460000
2639.809833	11.120400
2627.732500	11.805800
2632.423083	11.516100
2640.025117	11.055400
2639.064333	11.071200
2628.939617	11.545600
2631.044283	11.405700
2636.488383	11.022900
2635.578433	11.072400
2630.148300	11.395400
2626.926767	11.574700
2630.283983	11.198400
2625.721233	11.491800
2628.908917	11.313400
2631.070783	11.171700
2629.570467	11.103400
2621.519300	11.600300
2631.644600	10.956500
2634.130217	10.807900
2633.129300	10.646300
2625.610967	11.084800
2623.779083	11.144100
2627.429467	10.889200
2635.050217	10.357900
2638.739350	10.171700
2632.995950	10.500800
2634.700483	10.343400
2626.538400	10.794200
2626.725367	10.629100
2617.826067	11.143600
2622.172683	10.869900
2607.683817	11.729200
2622.308733	10.827000
2627.378867	10.507300
2613.198483	11.254800
2624.024250	10.620500
2618.159567	10.986700
2615.151050	11.138600
2622.015767	10.590400
2614.222533	11.029200
2605.970133	11.452800
2612.377083	11.071500
2616.480800	10.840400
2619.369217	10.677100
2604.452100	11.427800
2612.464750	10.948100
2616.705550	10.682000
2609.754933	11.082000
2609.636533	10.953000
2612.015700	10.763600
2606.848183	11.060700
2604.434533	11.177400
2614.101317	10.593100
2606.327783	11.043000
2607.927933	10.857900
2607.989367	10.744900
2608.421433	10.702500
2603.778733	10.931100
2597.566217	11.249500
2592.401600	11.437400
2594.107533	11.355600
2595.286983	11.253000
2596.846867	11.157100
2610.936533	10.280100
2609.280950	10.354700
2602.221533	10.654200
2599.150450	10.813400
2597.753467	10.834000
2592.801017	11.152000
2602.077333	10.586700
2594.855850	10.983500
2586.862617	11.392900
2589.807317	11.203000
2597.648283	10.746000
2596.778767	10.763200
2597.089617	10.662100
2604.804667	10.193500
2601.746067	10.305400
2596.167183	10.592700
2592.790050	10.779200
2592.888150	10.760000
2589.117150	10.924700
2587.201783	10.931700
2588.096067	10.864000
2591.118183	10.686900
2594.485150	10.465400
2591.936350	10.433900
2590.598500	10.488200
2586.336233	10.668600
2580.342433	11.004300
2586.035083	10.620600
2583.453767	10.755700
2578.957433	11.039400
2581.449867	10.902100
2593.713767	10.035100
2587.973150	10.348700
2590.532817	10.204000
2592.496850	10.037300
2577.364300	10.875800
2583.307783	10.484400
2572.458283	11.081700
2568.268000	11.328200
2576.883767	10.814200
2573.791917	10.978300
2577.902600	10.709300
2588.978167	9.891700
2580.463900	10.352600
2571.051017	10.863100
2569.629667	10.942000
2575.762867	10.582000
2576.302067	10.530100
2572.444917	10.600900
2572.688700	10.586900
2576.657450	10.351700
2574.593317	10.435000
2561.050583	11.113800
2568.362850	10.662500
2555.591950	11.357000
2561.698683	10.989000
2567.350717	10.668400
2561.367450	11.029700
2561.357183	10.975800
2563.319033	10.853100
2557.520033	11.170800
2565.622683	10.676100
2575.024317	10.114600
2569.161083	10.430700
2555.838500	11.042300
2561.168233	10.725000
2559.261150	10.819400
2564.850817	10.466200
2555.421700	10.883900
2556.379683	10.774200
2552.885133	10.947600
2558.587250	10.564400
2555.339317	10.745200
2551.675533	10.948500
2554.794050	10.732700
2551.831883	10.763700
2549.759700	10.873400
2550.884783	10.765800
2550.665350	10.756100
2549.870100	10.768700
2559.643817	10.178500
2550.571350	10.608200
2547.168933	10.797600
2549.077700	10.656800
2550.901450	10.555400
2549.105250	10.607000
2547.116583	10.692600
2548.019133	10.581900
2550.908833	10.389000
2552.140283	10.295700
2556.557667	10.020400
2549.490300	10.271900
2541.293250	10.718600
2545.242650	10.402400
2538.382017	10.804300
2545.969800	10.328600
2552.950050	9.897800
2536.635850	10.759100
2547.312200	10.087700
2540.248000	10.502300
2541.160400	10.435400
2534.809550	10.794800
2528.096500	11.154200
2534.889717	10.735900
2534.238300	10.781000
2540.224783	10.414800
2534.898983	10.725000
2534.449967	10.740700
2541.582733	10.137300
2530.946100	10.706000
2524.455733	11.036400
2527.418333	10.836000
2533.541183	10.480200
2534.387083	10.444200
2539.720783	9.987000
2528.376683	10.614900
2530.060867	10.438600
2533.554633	10.226100
2522.619083	10.862100
2529.060667	10.468000
2518.083717	10.976800
2519.306450	10.872200
2518.661483	10.898100
2521.287867	10.726300
2516.258900	10.982000
2520.504400	10.607000
2529.504017	10.057300
2518.756567	10.610800
2512.465233	10.986000
2518.873267	10.610500
2515.549750	10.798100
2519.413183	10.396200
2521.353767	10.257400
2517.573117	10.489000
2511.121083	10.871100
2513.627183	10.601100
2509.520467	10.799200
2499.746033	11.324700
2506.914250	10.904000
2513.257083	10.530900
2508.988183	10.777800
2512.864150	10.448000
2513.566250	10.331600
2515.550350	10.141100
2509.710883	10.458000
2512.551717	10.272400
2507.000417	10.588600
2506.842750	10.550300
2511.933383	10.203300
2503.961750	10.656800
2511.361700	10.234400
2503.265517	10.644700
2503.345717	10.520500
2498.823633	10.789500
2510.471883	10.055700
2505.885367	10.294900
2502.851733	10.459500
2505.987133	10.298700
2505.112833	10.197900
2503.168700	10.291400
2501.073167	10.409800
2506.384233	10.082100
2497.126567	10.487800
2501.982567	10.150900
2499.629850	10.253600
2499.058217	10.280800
2504.849317	9.856600
2494.431583	10.455600
2507.875133	9.614400
2500.148283	10.086900
2491.065183	10.462800
2495.204917	10.184800
2496.085317	10.115500
2500.676983	9.830700
2497.960433	9.878700
2488.676100	10.342700
2494.524000	9.936500
2489.652267	10.246300
2484.105483	10.583400
2493.119167	10.015600
2489.987517	10.185700
2486.136467	10.356700
2488.671600	10.178300
2489.408250	10.051400
2482.351917	10.450300
2480.206800	10.593200
2484.890617	10.288900
2473.554133	10.822800
2477.553200	10.581200
2477.140083	10.593000
2484.578417	10.123600
2479.969433	10.268700
2471.511217	10.752700
2480.481733	10.147500
2483.187267	9.989500
2473.655183	10.539900
2471.770783	10.671300
2480.460433	10.045200
2474.620333	10.344300
2476.236617	10.195300
2476.023417	10.175500
2477.374167	10.100200
2477.151400	10.088600
2467.924267	10.461700
2473.218867	10.142800
2475.516850	10.003700
2474.579033	10.047900
2467.777600	10.392200
2462.837900	10.591400
2460.993150	10.690700
2465.308567	10.381300
2467.072283	10.265700
2466.723350	10.283300
2474.724333	9.780000
2463.115683	10.326000
2468.913967	9.950800
2465.160833	10.150200
2463.927400	10.256000
2465.609700	10.106900
2472.300633	9.661800
2467.612350	9.825500
2467.211417	9.839200
2469.602333	9.675300
2468.706267	9.695800
2455.838117	10.313500
2458.611600	10.114400
2452.081367	10.418200
2461.670033	9.830700
2456.006067	10.145800
2462.492067	9.782200
2449.055617	10.426000
2454.366867	10.098100
2458.857183	9.819600
2456.429700	9.956000
2449.211750	10.405100
2448.136817	10.447000
2450.144567	10.275400
2457.257650	9.764600
2463.588233	9.368100
2466.451133	9.119100
2449.735733	10.089600
2445.490050	10.288400
2446.265000	10.220000
2450.735150	9.927500
2443.021600	10.406000
2438.373433	10.675500
2443.148917	10.412800
2448.094550	10.103000
2451.104633	9.901500
2450.134983	9.591600
2453.741017	9.309700
2445.810133	9.770400
2437.958683	10.233300
2442.946333	9.943500
2446.405400	9.722600
2437.876300	10.227500
2438.962683	10.161900
2439.419083	9.901500
2434.688250	10.118600
2435.049317	10.053700
2441.166550	9.689300
2424.467333	10.689900
2429.566533	10.409700
2435.569533	10.058100
2438.053183	9.902100
2442.299550	9.514100
2433.143117	9.855700
2432.496733	9.868500
2430.684217	9.967600
2430.105033	10.000800
2431.061483	9.877500
2438.996883	9.379500
2428.817000	9.967100
2426.301800	10.126700
2432.702933	9.741900
2432.593550	9.724700
2429.078783	9.724200
2427.765600	9.819500
2423.522750	10.070600
2423.437333	10.039500
2417.133150	10.299500
2425.493100	9.767600
2418.388833	10.182900
2418.385283	10.158600
2422.720233	9.907800
2419.774517	10.063000
2418.473317	10.142800
2422.202483	9.905700
2425.689817	9.701500
2427.785017	9.565900
2419.987583	9.607800
2427.844217	9.149800
2415.152183	9.892500
2418.565400	9.699200
2417.284400	9.736700
2413.674750	9.897200
2409.572683	10.122600
2411.358833	10.018800
2413.145150	9.908300
2417.376000	9.638600
2424.077650	9.227000
2423.293717	9.241300
2418.696800	9.467000
2415.171517	9.363400
2412.818767	9.475000
2413.215717	9.413800
2416.398967	9.193900
2399.430567	10.189300
2409.803550	9.574400
2404.995217	9.849700
2406.514133	9.744900
2400.784350	9.811100
2398.618633	9.876900
2399.243067	9.832300
2402.860783	9.616200
2385.073017	10.672600
2396.640267	9.987700
2391.783850	10.271300
2394.155517	10.134100
2393.550417	9.838600
2390.583133	9.995400
2394.261100	9.775700
2388.739400	10.075700
2387.778500	10.071800
2391.553933	9.738600
2398.283933	9.320100
2392.878183	9.640500
2395.311433	9.445200
2385.979450	9.881900
2393.458650	9.426500
2388.784133	9.681300
2386.917533	9.784500
2386.007050	9.836000
2382.224250	10.058900
2383.298600	10.025300
2397.478367	9.177700
2384.602683	9.926400
2394.916933	9.314100
2389.020450	9.298400
2385.435933	9.472200
2389.475750	9.228200
2373.860917	10.164400
2375.483700	9.927800
2379.815183	9.650400
2376.727483	9.819900
2382.931583	9.455700
2388.245350	9.061700
2383.614550	9.298700
2379.299617	9.544900
2376.699333	9.696300
2376.447617	9.677800
2382.698983	9.286800
2378.332717	9.534400
2378.063583	9.528000
2377.714150	9.530900
2379.464300	9.398600
2371.965183	9.726000
2372.866717	9.423400
2370.613683	9.515700
2368.230750	9.637400
2367.952967	9.653500
2371.019217	9.475000
2367.054400	9.714200
2363.086200	9.960200
2365.804283	9.795900
2366.976167	9.426400
2369.314800	9.281000
2365.496700	9.517700
2362.714217	9.682000
2360.920833	9.642300
2362.531750	9.538100
2365.768433	9.324000
2359.074400	9.744200
2355.048350	9.850400
2362.260000	9.397400
2350.073183	10.114800
2356.523383	9.716700
2347.571150	10.248500
2352.763050	9.942500
2365.650250	9.155000
2357.923267	9.586300
2360.748050	9.389600
2352.022783	9.921900
2359.822750	9.444200
2364.149333	9.176100
2359.635617	9.433000
2360.599550	9.362600
2357.825400	9.509600
2357.657633	9.518100
2350.171950	9.978200
2353.151033	9.801600
2357.655183	9.416400
2341.047950	9.903200
2343.352050	9.785300
2344.739583	9.703500
2346.658000	9.578000
2351.552800	9.184700
2347.236833	9.456900
2343.380733	9.649800
2343.138167	9.655000
2345.373067	9.442600
2346.156750	9.359600
2343.281183	9.504900
2341.603817	9.577000
2345.463800	9.317900
2339.995617	9.655000
2347.203517	9.198700
2341.772750	9.498200
2342.387800	9.429500
2348.914267	9.040300
2342.047100	9.233000
2339.028100	9.235100
2334.739183	9.470700
2333.380633	9.515400
2325.280950	10.009700
2325.976300	9.958700
2327.583000	9.848300
2334.795533	9.341400
2338.640600	9.082700
2333.716883	9.335700
2330.558567	9.523000
2322.603850	9.967100
2331.522083	9.413400
2329.959767	9.481000
2337.095267	9.056200
2331.887983	9.363600
2322.657283	9.901500
2330.695550	9.129500
2324.806850	9.351500
2337.540417	8.545300
2326.963817	9.170500
2328.419517	9.049900
2318.979417	9.607000
2324.363183	9.060600
2324.682700	9.022400
2320.088467	9.292300
2316.595750	9.496100
2312.467750	9.614600
2311.154650	9.640700
2311.789833	9.628800
2312.514700	9.540800
2318.017017	9.216700
2310.496817	9.655600
2309.121750	9.601400
2307.526433	9.597300
2310.624367	9.388300
2313.631967	9.191500
2313.454333	9.210000
2309.241650	9.450500
2309.650850	9.398000
2308.571417	9.399400
2304.413017	9.636700
2296.559617	10.108900
2298.721817	9.971200
2302.838000	9.581900
2303.199067	9.514300
2311.500533	8.999400
2302.881817	9.500500
2297.009017	9.858100
2298.607383	9.759000
2293.811917	10.032700
2299.971333	9.661500
2301.918517	9.530200
2298.654750	9.722000
2305.667383	8.961600
2306.141350	8.888000
2296.014083	9.420600
2294.224283	9.506400
2302.727033	8.950200
2291.641150	9.573200
2310.569833	8.380500
2295.472750	9.311000
2295.023033	9.277800
2290.743050	9.515900
2287.876533	9.678300
2293.632783	9.317400
2292.073900	9.413000
2294.277850	9.277700
2289.548033	9.499200
2295.731433	9.014700
2288.102333	9.440700
2287.696500	9.478700
2295.693150	8.974400
2290.359350	9.135200
2285.975850	9.356900
2289.824517	9.084400
2285.067767	9.361300
2293.107100	8.850200
2286.559967	9.215500
2284.503250	9.182300
2284.704167	9.132100
2281.109083	9.306000
2287.994067	8.854300
2284.523533	9.061800
2289.382817	8.735800
2288.255850	8.747600
2275.527083	9.455700
2274.260533	9.536100
2278.189150	9.296600
2276.317833	9.285900
2275.250933	9.282000
2269.819667	9.586000
2276.486150	9.145100
2273.150933	9.314100
2278.590267	8.987500
2278.437183	8.978400
2279.108650	8.897600
2271.611667	9.283300
2276.962450	8.888600
2275.943467	8.929000
2277.247450	8.821700
2280.370667	8.605600
2273.332533	8.963100
2274.289917	8.893600
2268.372100	9.231200
2270.577100	9.065300
2265.451383	9.213900
2268.093667	9.015100
2268.538233	8.928300
2257.100050	9.590900
2259.066283	9.462300
2257.082383	9.584100
2260.406317	9.335800
2256.009467	9.591400
2266.304717	8.907100
2264.063183	9.032700
2257.933367	9.359200
2259.327300	9.257000
2259.192317	9.219700
2264.438083	8.846100
2269.489850	8.464400
2267.053800	8.593100
2253.441733	9.322200
2263.140100	8.638400
2255.431317	9.049900
2251.341967	9.234400
2256.319767	8.916400
2250.159800	9.268400
2251.182133	9.160500
2254.857450	8.787800
2248.191450	9.136700
2251.344033	8.872200
2253.617133	8.716800
2259.749283	8.340900
2256.822617	8.459200
2248.538383	8.792400
2244.804883	8.969700
2243.606367	9.006400
2238.509267	9.292000
2241.748933	9.102900
2241.911850	9.113600
2238.612617	9.261700
2235.440200	9.480800
2231.909550	9.702200
2238.618383	9.291900
2241.191500	9.004700
2244.151983	8.748300
2241.371783	8.892600
2230.634933	9.508500
2236.175533	9.166500
2242.312017	8.793700
2239.901983	8.877300
2239.029250	8.798600
2236.228300	8.956700
2239.243417	8.775400
2236.819033	8.877000
2238.143633	8.674200
2236.691067	8.731900
2224.536450	9.399200
2228.976650	9.129200
2242.454717	8.304700
2232.312517	8.906500
2230.868600	8.855600
2220.010717	9.443500
2223.471767	9.226000
2228.548350	8.910800
2222.864967	9.265900
2224.656867	9.131200
2234.995367	8.402800
2225.708300	8.867600
2228.626083	8.686800
2235.384017	8.233000
2225.417183	8.798100
2223.098867	8.927800
2225.882467	8.748700
2215.936167	9.188200
2217.210800	9.121100
2221.449650	8.859800
2218.724800	9.002600
2215.132167	9.155500
2227.286017	8.413900
2220.442917	8.744200
2220.860467	8.708500
2217.844033	8.865900
2211.430483	9.239700
2221.160100	8.496500
2210.945367	9.084700
2217.133983	8.680800
2212.868433	8.910600
2211.533550	8.973800
2201.594600	9.575600
2203.626650	9.296600
2205.710500	9.153500
2212.697683	8.735100
2205.701400	9.132500
2205.375017	9.025600
2207.538917	8.854600
2200.141450	9.258200
2213.762567	8.410600
2215.659767	8.299900
2208.216517	8.696500
2201.747333	9.067200
2202.679833	8.955000
2203.072950	8.943200
2204.894800	8.801600
2206.262750	8.711300
2202.895017	8.903800
2200.216450	9.045200
2204.694217	8.717200
2211.195750	8.327300
2207.455083	8.501100
2210.995833	8.261100
2203.220667	8.579800
2206.019350	8.362700
2202.638383	8.518200
2201.943883	8.532600
2205.259017	8.305600
2203.305167	8.413900
2199.664317	8.466700
2210.324917	7.780600
2196.099933	8.522100
2202.312733	8.157900
2199.685500	8.277200
2190.026617	8.829400
2187.570117	8.873500
2194.921483	8.444100
2200.126850	8.118200
2196.186167	8.335300
2185.724083	8.895300
2183.546817	8.991400
2189.727700	8.587100
2180.216000	9.110600
2184.643683	8.841300
2190.302967	8.472400
2188.059017	8.580700
2183.447683	8.707500
2191.268183	8.221800
2187.895067	8.389900
2193.788833	8.021400
2187.374717	8.378200
2179.367483	8.847300
2180.548867	8.537800
2173.091633	8.984100
2194.479167	7.679200
2184.422883	8.266500
2177.853733	8.521200
2178.521683	8.426700
2168.509767	8.947000
2170.375950	8.832200
2151.591583	9.922500
2163.661267	9.240100
2169.991567	8.824600
2162.384383	9.200100
2163.348983	9.121800
2159.275883	9.362100
2169.249583	8.769300
2165.051867	9.014200
2174.509450	8.432900
2173.020450	8.346200
2170.533100	8.464400
2162.968067	8.909200
2166.492883	8.681700
2159.879783	8.961600
2161.392117	8.812000
2160.662250	8.800100
2169.236017	8.269300
2170.483617	8.142700
2166.881317	8.331100
2162.018533	8.478900
2166.363833	8.167800
2150.323133	9.101700
2157.043383	8.695800
2155.750950	8.770700
2168.805067	7.991800
2156.535317	8.611300
2150.807317	8.906200
2151.829933	8.826300
2157.743067	8.491300
2155.364033	8.545500
2150.126467	8.784400
2159.015367	8.231500
2158.306250	8.232200
2157.804233	8.241900
2156.315300	8.324600
2149.605250	8.681600
2150.314150	8.507000
2147.491350	8.648000
2147.646400	8.597000
2148.382800	8.551100
2147.026833	8.572500
2146.494867	8.605600
2150.453167	8.240200
2145.529367	8.493400
2144.011883	8.578500
2143.015650	8.622500
2152.597467	8.030800
2145.378817	8.437000
2142.229850	8.495900
2133.180550	9.002300
2135.980950	8.821100
2138.277550	8.669300
2135.305583	8.797500
2124.057300	9.394100
2136.350667	8.638300
2136.748450	8.582600
2133.238250	8.798600
2141.659917	8.275600
2147.266617	7.888300
2141.935883	8.076900
2139.623133	8.195400
2135.044067	8.414800
2143.876933	7.882200
2142.576950	7.932500
2131.734283	8.576100
2129.970683	8.512200
2136.571933	8.101200
2134.455750	8.208500
2131.910583	8.358600
2129.211450	8.375300
2124.614100	8.616500
2125.340150	8.522900
2129.696867	8.265100
2132.015933	8.107800
2121.682367	8.738500
2126.094567	8.374600
2124.700817	8.402800
2128.299417	8.142700
2125.901767	8.265100
2130.424217	7.969900
2127.389717	8.146000
2127.148333	8.076300
2114.505967	8.728000
2121.342333	8.328900
2112.010167	8.871100
2123.157250	8.166200
2119.671650	8.246300
2123.261100	8.015300
2121.584233	8.094600
2120.655500	8.123000
2121.497400	8.075000
2120.163600	8.138600
2122.993333	7.863000
2111.102083	8.511300
2112.034783	8.380500
2117.655417	8.040700
2116.673200	8.060600
2122.950467	7.684300
2113.173367	8.165500
2115.700533	8.001600
2113.918950	8.110400
2106.969000	8.528000
2108.797350	8.303300
2110.735500	8.156300
2107.366717	8.286100
2102.054383	8.592900
2103.207800	8.518400
2107.938967	8.212000
2114.931033	7.704600
2110.144317	7.912600
2108.672567	7.990900
2102.756933	8.320200
2105.461717	8.121100
2095.718050	8.551400
2100.437117	8.261800
2102.864650	8.069600
2105.623583	7.898700
2103.144633	8.013300
2090.181433	8.726700
2094.510633	8.403900
2093.333900	8.443400
2097.776817	8.116900
2107.138533	7.533300
2095.185867	8.236000
2093.716000	8.303000
2101.542767	7.774900
2095.864217	8.101000
2090.680900	8.262500
2093.098217	8.111800
2084.954050	8.624000
2082.525933	8.758800
2091.299750	8.160200
2095.283750	7.920800
2088.282817	8.317600
2092.157467	8.073700
2090.072200	8.143700
2087.059817	8.282200
2082.897900	8.533100
2079.719483	8.702700
2089.766583	8.095800
2086.066417	8.280400
2089.148483	8.016300
2084.059600	8.213300
2082.290467	8.280400
2080.915467	8.318500
2077.212850	8.527400
2077.822283	8.483700
2084.743750	8.049200
2094.730217	7.281700
2084.877750	7.841300
2083.599600	7.917800
2077.940833	8.228400
2075.925767	8.223700
2072.204883	8.377500
2076.044150	8.069300
2072.446967	8.296000
2073.358317	8.246800
2073.782150	8.225600
2077.172533	7.927500
2074.891150	7.963700
2071.619150	8.130500
2079.644567	7.615300
2076.498367	7.798300
2081.134367	7.493200
2071.926500	8.016800
2071.414333	7.991700
2072.060533	7.934700
2072.110150	7.909100
2074.105833	7.729200
2076.494250	7.439900
2067.787567	7.918900
2063.482717	8.094100
2065.277667	7.977700
2067.692700	7.816100
2071.092183	7.605900
2062.353433	7.988700
2066.101050	7.756700
2067.291617	7.592200
2060.975617	7.939900
2059.506000	8.009600
2056.749017	8.165800
2060.914350	7.826000
2050.668533	8.416500
2062.963717	7.667200
2061.235233	7.762800
2054.850533	7.995900
2048.084383	8.361600
2051.183517	8.114800
2051.881733	8.074200
2047.458167	8.329000
2052.813067	7.999600
2057.293567	7.675000
2050.752067	7.933600
2053.776000	7.730900
2051.154450	7.835000
2048.987500	7.977500
2049.208133	7.943100
2045.653150	8.163200
2043.988600	8.145800
2043.992417	8.120200
2046.979250	7.866500
2043.781250	8.046800
2037.737233	8.391600
2039.428433	8.298000
2060.271967	6.979300
2044.912367	7.903900
2034.868550	8.466500
2042.131050	8.025200
2043.164600	7.868600
2042.432883	7.833600
2042.415033	7.789200
2034.966700	8.188400
2038.933950	7.932200
2045.523667	7.519600
2036.606133	7.954200
2038.359017	7.759600
2037.575400	7.774700
2039.010717	7.625200
2030.867100	8.089400
2030.966817	8.071600
2035.628217	7.784500
2043.092133	7.194000
2033.130483	7.765800
2031.273367	7.852900
2033.679150	7.714400
2031.831067	7.747600
2028.493017	7.930600
2032.144217	7.642000
2028.221583	7.853400
2026.712567	7.929400
2032.813467	7.552300
2028.332200	7.742900
2027.434183	7.709100
2019.072150	8.118200
2021.415367	7.971400
2026.915733	7.624500
2028.000583	7.567500
2017.041817	8.158000
2023.291917	7.677100
2030.695033	7.191300
2028.030167	7.295200
2013.786483	8.126100
2017.695183	7.899900
2014.513067	8.082700
2025.476683	7.254900
2011.514050	8.067200
2018.667617	7.655500
2018.670983	7.633500
2013.308333	7.818000
2018.033967	7.500700
2013.979917	7.658200
2018.424283	7.383900
2014.516250	7.583300
2011.139717	7.766500
2011.501233	7.630500
1998.548200	8.334500
2004.353800	7.979600
2009.158550	7.672100
2010.008867	7.618000
2009.499550	7.636400
2012.138567	7.363000
2010.843433	7.422000
2010.713050	7.423700
2008.941633	7.511100
2009.259050	7.372700
2007.625600	7.374200
1999.435033	7.821900
1999.012650	7.811600
1995.235183	8.040300
2007.723067	7.288000
1994.765267	8.030800
1999.498817	7.716700
1997.745567	7.800700
2001.749433	7.509000
1991.106217	8.137300
1990.183500	8.191100
2002.781567	7.422100
2005.569033	7.160700
2000.111867	7.472500
2002.104333	7.325700
1995.561417	7.708300
2001.024317	7.234000
1999.287217	7.270300
1993.675300	7.501100
1990.902683	7.663500
1997.543683	7.256100
1991.806200	7.580600
1979.456683	8.135700
1989.216517	7.535500
2000.630800	6.842000
1996.969433	7.043700
1984.728267	7.674400
1991.358400	7.172300
1985.239667	7.544800
1985.168017	7.509100
1986.154500	7.442300
1992.849017	7.029700
1984.143317	7.531600
1978.528517	7.731400
1981.448150	7.541300
1979.664767	7.587100
1982.206433	7.425000
1975.161117	7.840000
1984.754033	7.254000
1973.820467	7.759000
1978.024000	7.481600
1977.637800	7.535300
1973.907333	7.740600
1973.061600	7.674200
1983.130067	7.031500
1974.344733	7.486800
1969.002617	7.787200
1974.880000	7.427300
1974.872833	7.446900
1981.200517	6.964300
1979.590867	6.989200
1973.927817	7.289500
1967.715400	7.661900
1972.089267	7.380100
1970.926750	7.380500
1969.373767	7.425100
1960.110933	7.979400
1962.066650	7.835900
1961.931583	7.759800
1957.430050	8.033600
1959.352550	7.930700
1969.173817	7.329400
1956.097450	7.951700
1964.786450	7.402700
1971.335017	6.991300
1962.161483	7.511100
1958.398250	7.632200
1962.401600	7.357100
1956.575967	7.675000
1958.206167	7.579600
1965.765900	7.095500
1957.921617	7.586500
1955.251667	7.632700
1949.949833	7.901700
1954.402617	7.614700
1952.277567	7.686400
1948.847067	7.899400
1956.024267	7.461700
1956.717533	7.349700
1948.088550	7.752500
1949.504267	7.671700
1960.886367	6.966400
1959.030333	6.989400
1955.077367	7.113700
1954.193767	7.146700
1948.472783	7.437300
1941.575033	7.843500
1951.799033	7.233600
1946.054983	7.558500
1948.580833	7.263300
1949.026517	7.201300
1944.026683	7.439400
1952.613933	6.898800
1945.499450	7.325300
1938.248717	7.772800
1959.354000	6.424100
1950.784217	6.915400
1934.903833	7.882200
1943.808033	7.302900
1946.198600	7.039100
1940.352267	7.310500
1941.214267	7.209100
1935.090367	7.570000
1931.071133	7.802100
1937.046350	7.432700
1929.689817	7.807600
1932.801317	7.551100
1936.278567	7.331500
1937.284183	7.281300
1942.433900	6.933800
1936.007700	7.164500
1931.596583	7.427700
1932.935567	7.308400
1938.027083	6.998400
1914.296067	8.360800
1922.770883	7.857900
1933.971617	7.175500
1931.000333	7.344000
1929.678650	7.249700
1930.028000	7.193900
1927.471483	7.330200
1926.131067	7.381000
1930.146317	6.985300
1923.832833	7.355400
1923.614017	7.363000
1923.246017	7.391500
1921.778200	7.343900
1922.218233	7.275600
1925.031467	7.061800
1921.490650	7.258700
1932.391483	6.605400
1925.013900	7.029800
1922.582483	7.141200
1923.698450	7.052900
1923.605617	7.030300
1918.180917	7.373500
1926.924500	6.842000
1916.510083	7.285500
1912.142383	7.519500
1919.481833	7.020300
1917.517550	7.141100
1914.655833	7.272900
1916.550367	7.149100
1916.336767	7.179100
1912.593833	7.404900
1919.080250	6.935000
1913.514100	7.247600
1916.959967	7.027300
1912.008800	7.323800
1910.926100	7.268600
1918.007467	6.808000
1917.764950	6.717800
1909.636517	7.190500
1923.269850	6.332300
1921.620017	6.444700
1912.228883	6.945300
1913.153200	6.770600
1911.472383	6.828900
1914.565033	6.584100
1915.062950	6.544100
1912.257667	6.663400
1912.429750	6.622700
1908.693850	6.766700
1903.949783	7.019400
1896.910183	7.440900
1902.076433	7.143600
1906.942867	6.700300
1911.190950	6.416000
1900.761267	6.981100
1903.083717	6.812200
1907.156367	6.528400
1906.602300	6.550700
1905.674500	6.457100
1896.558683	6.939000
1896.469050	6.882200
1895.220767	6.949000
1910.652450	6.002300
1899.256400	6.668000
1894.338900	6.901400
1891.728250	7.001600
1891.954033	6.927600
1889.053333	7.090800
1885.606617	7.285000
1890.242717	7.008400
1892.186200	6.805100
1889.233433	6.871800
1893.286983	6.599400
1887.566833	6.930900
1889.092217	6.793000
1893.187550	6.500300
1889.873567	6.675400
1886.898550	6.799700
1888.634783	6.680400
1892.342167	6.446500
1890.685850	6.535100
1890.343417	6.383500
1877.769550	7.115000
1892.433917	6.163600
1886.472067	6.499000
1887.258383	6.460800
1882.566617	6.716500
1868.931283	7.356000
1875.561217	6.930100
1882.771133	6.467100
1884.443967	6.380200
1875.435400	6.846500
1872.460267	6.991900
1873.819850	6.890900
1869.403350	7.134800
1876.532617	6.706600
1877.964367	6.624700
1875.917467	6.689500
1876.350400	6.552200
1868.946833	6.950100
1880.118733	6.219600
1863.661117	7.206400
1871.457550	6.759800
1871.267967	6.738100
1868.770633	6.705900
1862.917000	7.055300
1865.034483	6.909300
1867.330067	6.751600
1867.678800	6.606500
1863.492483	6.809100
1863.232383	6.766800
1865.572350	6.606500
1850.343167	7.513300
1858.598517	7.027900
1865.908767	6.494500
1862.488683	6.644700
1857.741200	6.911900
1860.441500	6.729200
1855.924433	6.984000
1861.775250	6.629300
1859.246267	6.686800
1855.379317	6.826600
1854.382467	6.864700
1857.580383	6.642900
1858.706367	6.514000
1857.725617	6.479800
1851.677300	6.829700
1851.417150	6.794600
1858.842000	6.324500
1844.498450	7.182200
1852.460883	6.718200
1848.780700	6.774200
1849.793517	6.695800
1854.661000	6.395300
1850.596950	6.633200
1845.140833	6.908400
1852.742583	6.446100
1846.221767	6.833200
1850.808617	6.526900
1850.639883	6.504900
1847.649933	6.672600
1850.126133	6.502800
1847.456250	6.647300
1850.758167	6.376900
1836.764283	7.182900
1836.663700	7.184600
1848.242633	6.489000
1850.628667	6.255100
1845.668400	6.405800
1845.261817	6.390400
1845.025583	6.351300
1836.521717	6.834400
1840.650333	6.597900
1834.752717	6.938500
1833.806267	6.898900
1840.242383	6.502800
1841.184050	6.289100
1833.376317	6.745900
1832.424150	6.802400
1823.107100	7.349000
1827.824500	6.897500
1831.238333	6.675900
1828.619083	6.823500
1833.962667	6.507400
1833.796217	6.396100
1827.884967	6.703300
1829.579900	6.544700
1822.200517	6.974200
1829.507067	6.527800
1831.503117	6.385300
1829.632483	6.454200
1835.215367	5.986900
1824.960600	6.583700
1823.069200	6.681800
1816.787000	7.002500
1813.063083	7.100700
1817.215350	6.823100
1821.724233	6.513300
1820.802550	6.553700
1822.913483	6.427500
1815.148500	6.891800
1813.219433	6.873600
1818.929600	6.508400
1815.418583	6.654900
1807.217083	7.128300
1821.253200	6.243500
1813.678250	6.710600
1814.476800	6.537800
1811.108467	6.673900
1807.865133	6.787800
1808.169083	6.754500
1804.879867	6.940600
1808.230167	6.733600
1813.076083	6.300900
1807.022517	6.670000
1807.054500	6.628700
1802.119633	6.916500
1802.951333	6.802500
1796.424483	7.078500
1808.489150	6.368300
1795.749250	7.081400
1802.202467	6.708100
1806.872567	6.432400
1800.746250	6.767900
1796.596617	6.861100
1794.641467	6.977500
1791.178350	7.143800
1801.179050	6.540200
1811.352933	5.913000
1797.613683	6.720300
1803.004333	6.234000
1797.505067	6.546400
1785.967850	7.180400
1795.866917	6.581800
1793.657883	6.587400
1792.796900	6.609500
1781.597600	7.218200
1784.924867	7.041700
1789.565317	6.751900
1793.372500	6.540200
1792.767883	6.471300
1791.470500	6.477200
1799.337100	5.978300
1781.195533	7.033800
1787.120733	6.668400
1787.669117	6.614500
1786.292550	6.668000
1780.043200	6.905900
1775.781167	7.158100
1779.825150	6.920000
1789.801600	6.311300
1778.417933	6.870600
1782.489167	6.620800
1779.187300	6.751100
1785.144450	6.413600
1775.855017	6.956500
1787.110800	6.265700
1773.738583	6.938100
1774.179283	6.882900
1778.882283	6.521700
1774.583800	6.781400
1774.717633	6.776100
1776.851650	6.656600
1788.813833	5.742300
1776.307633	6.496500
1777.768617	6.370600
1774.912850	6.557300
1779.541233	6.150600
1778.976417	6.122200
1776.673483	6.211200
1766.624517	6.792400
1767.085517	6.733600
1772.699567	6.401800
1777.448767	6.066700
1781.082650	5.805200
1769.239967	6.502000
1768.745100	6.487100
1764.694967	6.705100
1767.670100	6.522500
1771.792517	6.217900
1763.543217	6.590200
1766.421833	6.405600
1769.554600	6.231800
1757.741050	6.920000
1757.294200	6.834500
1758.108600	6.774200
1764.295533	6.336300
1762.794767	6.430000
1759.514550	6.629300
1761.028833	6.526200
1762.848650	6.252500
1756.387183	6.642900
1762.261800	6.281000
1758.360900	6.504200
1758.460200	6.388100
1751.286300	6.752600
1747.531267	6.932200
1757.044050	6.331700
1763.277717	5.929300
1761.994150	5.999900
1749.876733	6.646200
1753.850650	6.358700
1755.827450	6.229100
1742.660533	6.982500
1753.898500	6.280400
1751.748483	6.417600
1755.065067	6.200200
1757.148717	5.931700
1754.547517	6.037300
1753.842217	6.020200
1745.467717	6.516100
1742.372633	6.704400
1746.600517	6.433600
1735.900833	6.954600
1736.520567	6.911200
1738.319033	6.765000
1736.992933	6.826200
1743.444367	6.431500
1738.310417	6.723100
1750.948267	5.779000
1753.027767	5.641000
1749.760600	5.773700
1749.698900	5.771000
1740.847467	6.161500
1737.307767	6.307600
1734.038100	6.477800
1730.586033	6.659400
1733.939000	6.479600
1735.390267	6.394900
1738.456833	6.197700
1739.441133	5.986800
1743.702733	5.697300
1724.527550	6.757400
1734.473633	6.175500
1735.808200	6.108500
1735.427617	6.093700
1728.322750	6.395300
1728.106717	6.409000
1727.020167	6.457300
1735.874917	5.944600
1734.457917	5.878300
1726.889150	6.300500
1726.397100	6.259400
1725.691317	6.288700
1721.287483	6.523800
1722.066150	6.486500
1728.590433	6.054600
1727.543683	6.063900
1722.909200	6.301700
1723.645083	6.211800
1718.205300	6.521000
1724.682900	6.096500
1720.916783	6.246300
1719.129683	6.244500
1723.089867	5.994400
1715.445533	6.432600
1710.426100	6.652100
1710.803383	6.555900
1721.542267	5.898400
1716.547483	6.141300
1711.083750	6.446300
1713.317267	6.297400
1716.351317	6.106600
1713.946550	6.129500
1710.744333	6.288600
1707.574250	6.403700
1705.702583	6.524400
1711.586550	6.170000
1712.583250	6.089900
1704.250583	6.488100
1712.277900	6.027200
1714.996200	5.876900
1711.555367	6.058900
1712.106567	5.888200
1715.524650	5.632700
1728.125817	4.813900
1721.700833	5.158200
1706.889250	6.006500
1705.487750	6.076400
1706.567867	5.928100
1703.637867	6.018400
1710.876217	5.533300
1700.732183	6.084600
1698.748333	6.205800
1699.248067	6.170200
1700.249517	6.076900
1702.469683	5.813100
1692.837467	6.362200
1700.075517	5.930200
1708.614583	5.415600
1698.352667	5.903500
1696.462350	5.984600
1700.380150	5.690900
1697.253383	5.851500
1694.591050	5.992700
1692.579567	6.116800
1699.991950	5.614100
1705.782583	5.242500
1693.102583	5.888100
1698.162433	5.580900
1691.742717	5.950300
1690.771600	5.988800
1693.764800	5.653100
1694.650383	5.590200
1689.512033	5.862900
1689.778000	5.837300
1684.363817	6.102400
1683.663817	6.055600
1687.498717	5.795500
1692.512383	5.463000
1692.657900	5.445500
1688.613200	5.672000
1689.507967	5.586700
1684.088017	5.764600
1683.130300	5.808800
1681.971583	5.803800
1683.213433	5.709000
1686.666833	5.475900
1685.978833	5.520000
1686.844067	5.270200
1685.187983	5.325000
1678.887950	5.693900
1668.410017	6.314800
1686.115617	5.141500
1676.909700	5.621600
1685.993050	5.023700
1674.973183	5.658300
1676.710450	5.520200
1676.014450	5.554400
1665.973600	6.126800
1674.261167	5.610400
1666.883600	5.967800
1662.413383	6.225900
1663.637433	6.169200
1669.842400	5.788100
1670.170100	5.725700
1669.007267	5.656300
1669.266583	5.624400
1663.029933	5.977500
1662.624950	5.972600
1659.376817	5.992300
1657.665467	6.101200
1664.972383	5.639100
1657.437783	6.073500
1656.917617	6.079300
1661.009467	5.819500
1652.198367	6.266500
1653.763100	6.154400
1659.983900	5.663600
1653.477117	6.039700
1657.923333	5.791800
1652.957267	6.100900
1656.550867	5.758000
1653.481567	5.925100
1659.229417	5.563900
1657.721600	5.644700
1657.002183	5.594400
1649.567633	5.974200
1648.314800	5.988800
1652.073133	5.732700
1633.365283	6.849000
1638.994917	6.497500
1644.554500	6.169400
1646.115267	6.052900
1641.984483	6.271200
1642.361467	6.209800
1650.639683	5.707500
1642.202817	6.203200
1650.461367	5.669200
1643.166667	5.961100
1647.217200	5.710400
1646.753600	5.727500
1652.626983	5.335200
1642.130817	5.812300
1632.654583	6.361800
1647.875900	5.397800
1638.879450	5.915300
1640.910333	5.777700
1639.537333	5.878200
1642.348667	5.571100
1641.387900	5.596700
1635.133583	5.902800
1633.663167	6.012400
1631.193950	6.128600
1635.183617	5.878300
1647.212717	5.089300
1642.515433	5.352000
1622.569383	6.513300
1627.531650	6.218900
1637.743933	5.517600
1630.756733	5.874000
1627.619150	5.936300
1627.728317	5.956600
1626.019250	6.055700
1629.786250	5.836700
1634.423583	5.524200
1628.190617	5.745700
1626.133317	5.830600
1626.755750	5.749400
1626.585667	5.744500
1623.530333	5.914800
1627.762067	5.657500
1616.808783	6.156600
1615.777500	6.204500
1625.387017	5.618500
1620.258867	5.921500
1620.334333	5.777400
1625.253433	5.431500
1617.748817	5.789500
1624.074517	5.401300
1620.619717	5.553400
1615.317950	5.897600
1614.704783	5.867100
1617.919567	5.566600
1621.178700	5.344700
1623.099467	5.188900
1619.430133	5.399700
1615.626317	5.595400
1607.455433	6.064500
1616.369433	5.388000
1612.208433	5.622300
1605.376783	6.004500
1600.681850	6.295400
1610.677483	5.589000
1602.782617	6.041200
1607.835750	5.683400
1606.039550	5.797700
1601.756917	6.043300
1602.532167	5.972500
1604.973683	5.688600
1607.209000	5.541800
1605.668133	5.598600
1598.328717	6.001900
1608.288433	5.385600
1603.214700	5.699000
1603.346933	5.567700
1606.694800	5.295800
1600.752667	5.603800
1598.739783	5.677200
1603.773650	5.366600
1602.617450	5.413100
1605.598900	5.221100
1593.575383	5.811300
1590.362867	5.994400
1601.745000	5.299100
1596.053067	5.602300
1593.979517	5.574400
1598.114367	5.300500
1580.716583	6.299700
1597.216317	5.313700
1597.131317	5.299900
1601.125250	5.062400
1587.171017	5.728000
1595.406100	5.200700
1592.647450	5.339900
1588.179933	5.605200
1588.982867	5.431300
1596.852900	4.937000
1586.226433	5.558700
1580.246467	5.879500
1589.806300	5.317400
1590.833067	5.234200
1579.221033	5.839800
1573.901483	6.081300
1580.449450	5.663600
1584.333283	5.389500
1588.861867	5.110000
1585.688067	5.269900
1584.496867	5.300200
1584.070533	5.200200
1581.937850	5.302400
1585.712633	5.014800
1584.615283	5.067900
1575.619900	5.592500
1578.815667	5.407600
1577.301533	5.386800
1579.642617	5.208700
1581.505083	5.082600
1588.137767	4.661800
1575.371500	5.274800
1574.529633	5.301300
1575.079500	5.246300
1569.838983	5.558700
1566.901567	5.728300
1563.335350	5.934200
1565.147217	5.692300
1566.508800	5.580200
1562.055567	5.786800
1569.020250	5.348900
1569.315000	5.317400
1571.473583	5.213700
1573.200183	4.908300
1567.083183	5.275500
1568.314550	5.171300
1572.440783	4.918800
1566.273250	5.190800
1559.129883	5.544300
1552.717767	5.919700
1550.830483	6.034500
1557.622100	5.624600
1564.784317	5.173000
1561.261233	5.358600
1558.568883	5.484600
1562.359217	5.240500
1560.773617	5.260600
1560.916267	5.249200
1550.337183	5.860800
1551.061333	5.810400
1561.395283	5.177100
1560.621917	5.202700
1556.583333	5.251500
1557.447433	5.173200
1560.310283	4.952400
1556.834550	5.132900
1558.674850	4.910900
1560.110767	4.804000
1552.710217	5.215000
1551.792400	5.242700
1547.329117	5.351500
1549.806267	5.213800
1543.073183	5.579700
1546.771600	5.337800
1550.017900	5.059700
1547.976800	5.076800
1534.966967	5.758000
1534.352033	5.820900
1543.583117	5.280700
1545.838900	5.154800
1541.098283	5.392500
1546.707217	5.011900
1537.934483	5.516700
1540.884333	5.328900
1539.765017	5.368600
1542.741283	5.173200
1534.267317	5.679700
1535.269567	5.458000
1539.220517	5.198800
1532.349667	5.596000
1529.214817	5.804500
1535.259250	5.329400
1535.329650	5.285900
1536.876317	5.105500
1535.069500	5.234900
1534.337733	5.303400
1526.096767	5.747500
1530.573700	5.375600
1524.521033	5.680200
1525.309083	5.568300
1529.026783	5.326800
1519.865217	5.860900
1529.583717	5.285200
1528.255283	5.336700
1529.600633	5.194200
1525.564850	5.419700
1534.957650	4.849100
1532.628433	4.949400
1520.611967	5.535100
1516.929167	5.732200
1513.526233	5.899200
1519.925633	5.508900
1528.236033	4.988100
1524.998800	5.168300
1517.888767	5.431600
1514.208983	5.630700
1520.628750	5.257100
1526.715017	4.855900
1507.784783	5.834100
1514.742950	5.408000
1510.130417	5.605900
1507.824550	5.723600
1520.943533	4.887300
1513.816033	5.297100
1512.852317	5.333200
1511.617933	5.420400
1511.303400	5.317400
1506.567050	5.570300
1509.267350	5.406200
1514.063750	5.112200
1506.050450	5.557100
1509.406417	5.345800
1511.061383	5.208300
1513.259983	5.027400
1514.204033	4.954500
1502.538067	5.625700
1504.810167	5.456200
1514.171267	4.780600
1505.127950	5.302100
1498.710950	5.640500
1502.958517	5.360200
1495.822900	5.783300
1500.299483	5.522700
1503.838700	5.126000
1498.417783	5.438100
1496.168217	5.566600
1496.193233	5.558700
1496.430733	5.405400
1499.964883	5.162400
1502.250683	4.950300
1499.259667	5.138500
1493.171317	5.474800
1498.087867	5.178400
1495.789800	5.189300
1505.158550	4.588400
1491.663517	5.301700
1487.892133	5.546100
1496.974917	4.982500
1495.117000	5.084000
1494.036533	5.088900
1486.810117	5.389300
1480.551767	5.752300
1482.902567	5.629900
1490.980600	5.138000
1475.082050	5.957300
1480.273217	5.640400
1488.455800	5.109500
1486.234033	5.223000
1481.950383	5.446800
1482.815067	5.386000
1488.411000	4.992200
1490.931283	4.765200
1471.330267	5.789500
1484.465117	5.018500
1488.177683	4.781100
1485.658317	4.909000
1485.192617	4.782400
1480.921283	5.025000
1480.838817	5.005300
1485.439783	4.731900
1480.699833	4.879800
1474.113000	5.215100
1472.327483	5.265000
1479.798650	4.821800
1480.356733	4.768200
1479.719400	4.800800
1476.344417	4.966000
1474.766450	4.932800
1473.514633	4.960800
1478.056517	4.652200
1477.875933	4.646100
1469.974783	5.094300
1479.843133	4.479600
1473.040350	4.818200
1477.735467	4.509700
1470.160883	4.939800
1470.265133	4.908900
1471.466667	4.825600
1470.859817	4.855900
1460.156150	5.380400
1470.236733	4.707900
1468.807000	4.768400
1463.750600	5.074700
1465.157733	4.866300
1454.665700	5.449100
1459.444567	5.107600
1459.874583	5.110200
1467.200517	4.670500
1459.545700	5.118800
1465.901283	4.726800
1467.542550	4.577900
1466.436833	4.610100
1459.686567	4.987000
1458.871483	5.027700
1454.584700	5.216000
1458.278633	4.989000
1457.683967	4.963600
1455.213900	5.089100
1460.214067	4.771900
1457.252083	4.923300
1454.344467	4.955200
1455.036750	4.888100
1451.266150	5.035700
1443.270683	5.506200
1446.668283	5.286600
1451.708000	4.994300
1449.422900	4.984700
1446.223100	5.161400
1441.716117	5.405800
1441.082450	5.425100
1452.631867	4.626700
1444.831467	5.054500
1444.714800	5.002700
1438.885933	5.339700
1444.436617	5.009500
1439.114167	5.320900
1442.349900	4.981700
1443.214700	4.893500
1438.664200	5.151800
1432.567183	5.516700
1427.491967	5.773000
1433.301417	5.399800
1428.143533	5.716800
1438.588417	5.036200
1439.227867	4.965700
1449.012483	4.310400
1446.628717	4.457200
1438.300633	4.920000
1440.183383	4.790100
1438.730750	4.721000
1438.671033	4.717500
1426.470950	5.420600
1432.675300	5.044700
1424.013983	5.442000
1429.932683	5.038800
1431.630933	4.890000
1429.705350	4.996400
1427.908083	5.112900
1427.378033	5.127300
1427.681817	5.043100
1431.405667	4.781800
1427.218883	4.991400
1423.642767	5.164300
1429.595167	4.810900
1429.678883	4.777800
1438.992933	4.186200
1418.981700	5.227400
1418.874283	5.235000
1413.078150	5.552000
1420.499467	5.086600
1418.598800	5.066300
1424.832867	4.653100
1422.214050	4.709000
1417.103617	4.990300
1406.484950	5.600600
1423.147933	4.616700
1414.216633	4.989600
1422.513783	4.451700
1409.952167	5.149600
1411.273717	5.038300
1414.528250	4.829300
1420.709933	4.452600
1420.308917	4.389100
1416.634167	4.583800
1410.026000	4.963400
1410.701983	4.920900
1407.679450	5.081900
1409.941750	4.898900
1406.283250	5.065700
1412.230917	4.672600
1417.736217	4.326100
1416.251483	4.363500
1421.361217	3.991900
1406.188683	4.726500
1405.385583	4.752300
1408.273800	4.568300
1411.098417	4.392400
1407.786717	4.439800
1401.731950	4.780700
1403.871250	4.567400
1406.912817	4.343500
1404.254233	4.505100
1393.422483	5.133000
1403.649000	4.475600
1399.573800	4.678100
1399.617900	4.597100
1398.231567	4.661500
1397.542367	4.672300
1396.905233	4.709700
1392.312483	4.870800
1391.053367	4.909000
1386.089667	5.149600
1382.581317	5.335300
1396.007000	4.533500
1401.825817	4.178200
1394.553683	4.564800
1394.768683	4.444500
1395.099017	4.418800
1390.989850	4.656500
1385.443167	4.962700
1380.398450	5.116400
1386.714983	4.724100
1390.786300	4.486100
1392.540983	4.369800
1387.029633	4.523700
1389.284967	4.357600
1387.218800	4.404200
1393.310617	4.023400
1395.393617	3.815800
1383.781567	4.488700
1387.860433	4.256100
1383.912833	4.476000
1377.509183	4.716000
1381.970583	4.450500
1383.468833	4.349700
1380.420083	4.528800
1374.244017	4.858000
1377.256883	4.645500
1376.673483	4.646100
1375.506250	4.698500
1381.009500	4.352300
1371.188083	4.940400
1377.008900	4.536800
1372.888850	4.671200
1374.693267	4.529200
1378.837967	4.192000
1380.887667	4.048900
1376.050133	4.330800
1378.120833	4.154100
1368.787183	4.642200
1370.673833	4.534200
1381.811033	3.849900
1376.150800	4.157900
1385.121150	3.543800
1378.560383	3.886500
1364.659583	4.644000
1371.613067	4.226500
1358.921283	4.969800
1360.167783	4.906200
1360.797283	4.745400
1359.086783	4.773300
1363.978667	4.447600
1368.413267	4.167700
1360.994133	4.562100
1362.943950	4.436900
1364.487450	4.243700
1365.721400	4.088900
1360.359067	4.376200
1363.710383	4.158600
1362.781850	4.197200
1364.461133	4.091400
1359.904850	4.324100
1364.389217	3.878200
1359.514633	4.158300
1355.305983	4.400100
1353.644517	4.499200
1352.668300	4.502900
1362.496850	3.878300
1355.533267	4.192900
1354.574500	4.252400
1346.356850	4.730000
1357.845600	4.020200
1356.161633	3.977700
1341.589450	4.801400
1359.002783	3.699300
1352.430967	4.061200
1346.876067	4.360000
1338.700400	4.851500
1354.550750	3.775400
1343.325283	4.401300
1344.267083	4.320900
1347.669800	4.132700
1340.445200	4.521200
1334.999817	4.747000
1339.562883	4.448400
1332.604167	4.833400
1336.997567	4.570900
1334.697183	4.695600
1330.689283	4.936800
1341.571233	4.158300
1335.911450	4.436300
1339.447517	4.180000
1336.781133	4.321500
1338.499500	4.210100
1330.202267	4.681000
1331.012117	4.490500
1334.917367	4.230400
1336.947600	4.094600
1328.111517	4.636300
1329.123483	4.484100
1330.153567	4.379500
1333.068617	4.184500
1328.045000	4.425800
1343.360017	3.555100
1334.766500	4.035800
1326.745100	4.425800
1327.520300	4.280900
1327.466867	4.265200
1327.643400	4.191200
1322.952133	4.481700
1327.892500	4.160900
1321.542833	4.523400
1324.573117	4.213300
1329.407067	3.910300
1329.665067	3.890800
1322.945983	4.257900
1326.138700	3.920300
1322.604583	4.112400
1318.576200	4.327400
1322.424450	4.072100
1322.016533	4.084800
1315.011517	4.492600
1317.199250	4.189700
1315.823433	4.266300
1315.999550	4.252700
1312.440683	4.463100
1301.899300	5.013200
1311.030583	4.421700
1307.004533	4.625100
1311.111883	4.338000
1315.115317	4.072600
1313.043167	4.197100
1317.195317	3.931000
1320.862583	3.630300
1312.040417	4.140100
1318.314633	3.725700
1316.957050	3.798500
1309.857650	4.189400
1309.889817	4.153000
1312.188300	3.882800
1305.865433	4.219500
1310.441867	3.901300
1303.601817	4.296400
1303.141800	4.288400
1303.849033	4.247400
1294.900483	4.663500
1300.432983	4.292700
1302.625400	4.121600
1301.481550	4.177700
1299.218400	4.291100
1309.094950	3.673100
1297.695100	4.221200
1300.871683	3.974100
1294.857650	4.341800
1301.274550	3.923900
1295.874283	4.151100
1297.756733	3.985200
1294.475483	4.116300
1297.489033	3.897300
1294.474900	4.069100
1289.655400	4.341200
1282.142683	4.717200
1284.910650	4.481000
1292.216533	4.050900
1286.422417	4.382200
1282.139700	4.609700
1294.196467	3.761200
1289.937517	3.970900
1292.861833	3.740100
1289.657950	3.893000
1274.117767	4.834900
1276.881267	4.667800
1272.098117	4.867000
1291.955233	3.626400
1290.960983	3.639000
1283.980350	4.031000
1288.535683	3.706200
1281.469433	4.140600
1278.369617	4.192000
1275.297350	4.327400
1273.427267	4.418500
1266.421617	4.823800
1272.377783	4.483500
1277.727333	4.164600
1270.129250	4.598000
1270.289883	4.464000
1275.581300	4.147400
1276.765500	4.077200
1280.563233	3.846000
1274.917067	4.104700
1269.171217	4.426600
1278.223833	3.862500
1277.227567	3.901300
1280.241467	3.690400
1279.910367	3.674200
1275.979533	3.778500
1276.770517	3.678400
1265.047133	4.278900
1264.189467	4.336300
1270.006733	3.996300
1270.970750	3.938300
1266.138317	4.032400
1268.985767	3.853000
1262.367100	4.223000
1261.240233	4.269000
1265.817300	3.912800
1263.731550	3.947600
1265.945983	3.782400
1264.469233	3.811800
1260.990667	4.014400
1262.694583	3.900000
1253.021783	4.454400
1259.249450	3.962600
1259.842700	3.903500
1258.431050	3.957800
1258.264883	3.958500
1258.977350	3.896900
1254.328783	4.162800
1256.731417	3.865900
1252.243850	4.117400
1256.233850	3.876800
1256.316167	3.860800
1254.984800	3.849800
1253.741150	3.879200
1255.537250	3.733400
1250.694817	3.997300
1243.385217	4.439800
1247.854983	4.146900
1244.016717	4.286200
1240.479733	4.409100
1251.280433	3.761400
1242.863967	4.229500
1245.622267	4.051600
1240.750500	4.330700
1250.298083	3.745500
1242.385517	4.176100
1237.084483	4.491900
1242.320300	4.160300
1246.517317	3.877300
1237.702583	4.320900
1238.860333	4.239900
1237.108383	4.290300
1235.525283	4.354800
1240.744500	4.027100
1240.427800	4.030400
1243.904783	3.649500
1241.214350	3.794900
1244.940967	3.526600
1239.186517	3.850300
1231.576233	4.128600
1228.443867	4.329400
1228.703900	4.266200
1227.303033	4.328100
1242.704500	3.340100
1226.050450	4.331900
1233.625650	3.875000
1227.352417	4.248700
1228.870250	3.948500
1233.508933	3.692100
1218.891467	4.538200
1218.173567	4.602100
1222.972517	4.248100
1221.563083	4.250100
1219.855433	4.320900
1217.245633	4.464900
1220.589583	4.247400
1224.476933	4.012800
1217.243117	4.408000
1213.584133	4.518900
1218.338117	4.205500
1222.607833	3.883800
1216.286233	4.250700
1221.168150	3.948800
1223.901033	3.769500
1221.941450	3.736100
1212.295600	4.308200
1208.578550	4.527200
1212.792233	4.269000
1211.581850	4.220300
1206.569667	4.492900
1213.555250	4.020200
1218.939950	3.707900
1210.063500	4.221200
1209.286967	4.269700
1210.996233	4.098000
1209.151817	4.114300
1206.935717	4.207000
1206.166667	4.237600
1207.305367	4.153000
1218.945100	3.439100
1219.353733	3.374100
1197.968600	4.485200
1204.290283	4.118100
1200.026017	4.347100
1206.692850	3.947300
1205.721133	3.869100
1205.370150	3.863300
1205.340517	3.792400
1205.154650	3.788300
1212.917767	3.302200
1205.555867	3.745300
1214.344400	3.070700
1205.619867	3.522100
1197.627183	3.962100
1201.199533	3.732300
1196.910533	3.993900
1199.202350	3.856700
1187.073083	4.443300
1194.139883	3.992400
1199.996733	3.670500
1192.226367	4.077100
1191.068567	4.067500
1188.484350	4.132700
1190.669117	3.997300
1194.341417	3.728500
1185.921783	4.215300
1193.856267	3.739000
1191.200233	3.849600
1185.586467	4.071700
1184.705783	4.114800
1188.142300	3.887300
1189.044200	3.798800
1189.599900	3.668000
1183.981067	3.959800
1187.180900	3.766100
1183.806067	3.964900
1181.087650	4.123700
1187.177000	3.736100
1182.013417	4.000000
1185.381433	3.776100
1183.376633	3.831300
1181.108883	3.964200
1184.675867	3.728200
1172.473767	4.433200
1173.526917	4.257100
1177.798183	3.953100
1180.077000	3.743900
1179.378933	3.787200
1171.488950	4.240700
1167.991567	4.442800
1171.278350	4.218800
1171.866667	4.046800
1171.161867	4.092100
1169.984400	4.146500
1163.421883	4.510500
1166.037817	4.237600
1165.347050	4.242500
1173.267883	3.722100
1167.158400	4.080500
1165.848750	4.141400
1170.239883	3.876300
1169.988767	3.717700
1163.783900	4.081700
1168.082817	3.848800
1169.511967	3.728200
1159.966700	4.185200
1165.782333	3.831600
1155.674050	4.340300
1164.701650	3.811700
1174.913950	3.171200
1167.857700	3.559400
1156.206700	4.102100
1164.215367	3.576700
1168.393733	3.313800
1157.786433	3.910500
1157.564917	3.901300
1158.305617	3.862600
1162.461183	3.531900
1158.922067	3.647200
1161.940583	3.443700
1155.736017	3.760000
1156.266017	3.727000
1156.317450	3.707600
1157.545800	3.551600
1154.689217	3.608200
1151.533683	3.770100
1140.169883	4.426800
1147.528483	4.000200
1155.047367	3.524200
1151.711433	3.704400
1153.946233	3.488700
1159.689700	3.125000
1150.277817	3.657400
1149.102917	3.702700
1156.956433	3.129900
1145.261750	3.743900
1156.438883	3.001800
1146.494017	3.566200
1132.908700	4.404800
1139.571733	3.951300
1132.253267	4.328500
1138.215817	3.879700
1143.915383	3.488400
1142.010333	3.572100
1137.214883	3.861600
1137.155967	3.837700
1136.370700	3.857900
1139.562283	3.623700
1141.936233	3.468000
1144.184050	3.277100
1137.793450	3.679400
1138.602483	3.490800
1144.599550	3.099200
1135.440300	3.593000
1134.418700	3.632900
1127.957717	3.996700
1134.397550	3.611000
1140.676317	3.208900
1141.502983	3.136200
1131.176083	3.539400
1128.116500	3.699500
1130.774783	3.534900
1131.466350	3.481700
1137.027917	2.995600
1119.221267	4.042900
1127.183517	3.576100
1129.222317	3.459400
1123.858667	3.671200
1124.030267	3.590800
1118.711100	3.871400
1121.196767	3.690100
1118.274800	3.842300
1125.822117	3.397000
1115.737683	3.961800
1122.716000	3.420500
1123.361900	3.377600
1111.577300	4.028000
1121.917017	3.392200
1113.677167	3.848800
1106.888767	4.270300
1112.397200	3.803900
1118.470533	3.420600
1109.972267	3.911800
1114.323450	3.637100
1119.189750	3.215900
1110.109717	3.714700
1118.791150	3.164900
1106.528900	3.864200
1113.349700	3.460700
1115.874950	3.287000
1114.926750	3.267500
1117.163133	3.107700
1102.550517	3.911800
1108.009750	3.591200
1106.662267	3.671200
1114.339967	3.183100
1111.779450	3.286100
1112.393500	3.104600
1114.423950	2.953100
1109.004800	3.255800
1101.206350	3.654800
1097.831200	3.754400
1097.268383	3.792600
1091.401150	4.111100
1098.740017	3.678400
1095.695267	3.826900
1100.859333	3.528900
1097.349883	3.605100
1097.554883	3.574500
1105.708250	3.035300
1099.044167	3.394000
1106.092883	2.959800
1097.091583	3.466200
1102.598033	3.001200
1097.176683	3.303300
1096.315100	3.319100
1099.982467	3.109300
1099.392267	3.038200
1091.397467	3.432100
1088.364617	3.554200
1091.202167	3.361300
1093.192683	3.233400
1083.916017	3.791500
1083.024233	3.834000
1091.962317	3.250900
1086.834383	3.522900
1088.302133	3.417300
1078.481817	3.990400
1086.542133	3.507600
1090.157550	3.257300
1075.421667	4.021900
1084.339783	3.480300
1075.217817	4.010500
1082.540667	3.581800
1082.839617	3.414100
1088.125483	3.072600
1085.016933	3.184500
1079.124517	3.516400
1089.646583	2.858100
1074.265450	3.769700
1082.446350	3.231800
1086.467350	2.981900
1083.585350	3.105500
1078.028400	3.397700
1077.847383	3.391800
1079.883850	3.245600
1076.156650	3.298100
1070.414033	3.627900
1079.396533	3.072600
1075.023600	3.306800
1074.653133	3.256800
1073.681483	3.203400
1073.824983	3.148800
1069.777150	3.343700
1063.228700	3.712400
1067.568583	3.446700
1067.574817	3.435700
1066.409533	3.366300
1069.021350	3.186200
1072.090933	2.919900
1075.751333	2.691000
1069.517450	3.033500
1071.847600	2.859500
1062.322067	3.380500
1059.954967	3.511600
1064.808533	3.161700
1065.216533	3.129900
1059.751767	3.424000
1059.343000	3.458600
1050.428400	3.876800
1055.766183	3.540300
1050.309167	3.850300
1051.602650	3.754400
1062.539683	3.033000
1058.455550	3.188600
1058.892267	3.133300
1050.133350	3.624800
1050.918867	3.526900
1054.941450	3.230600
1064.822917	2.632900
1053.641950	3.200900
1047.645700	3.530900
1050.795267	3.308200
1051.825267	3.229900
1049.363117	3.391600
1042.864400	3.722900
1046.944733	3.453300
1039.619017	3.869800
1045.169783	3.541500
1050.646917	3.201700
1052.895483	3.012900
1052.912300	2.999900
1048.493000	3.180500
1054.794250	2.787200
1055.183100	2.728100
1049.584617	3.031300
1050.846167	2.806000
1048.125583	2.931600
1053.914950	2.535500
1049.377650	2.763800
1043.721900	3.078500
1042.334117	3.154000
1051.239083	2.557500
1043.460800	2.892500
1040.186150	3.060800
1041.182417	3.002800
1035.164967	3.331600
1034.327300	3.320000
1035.051267	3.262900
1032.937567	3.353500
1036.544333	3.126600
1043.706367	2.675200
1042.818267	2.689300
1032.040333	3.232800
1020.291517	3.918100
1026.727517	3.535000
1024.241683	3.691500
1024.018400	3.634100
1027.922150	3.363500
1032.058583	3.039600
1030.633850	3.102800
1033.631083	2.889000
1036.959517	2.660500
1029.848067	2.967700
1029.440167	2.917000
1025.522483	3.121500
1020.521700	3.383900
1017.371167	3.534100
1019.312017	3.427300
1030.032117	2.741800
1022.477600	3.091700
1017.833650	3.328100
1019.843183	3.204000
1019.096850	3.227300
1013.541900	3.538100
1018.525067	3.218500
1014.342000	3.391100
1012.678683	3.455100
1020.695800	2.981600
1014.727483	3.305100
1021.070600	2.839400
1017.071967	3.037300
1014.046683	3.133200
1013.823967	3.136300
1014.322417	3.102700
1014.151233	3.072600
1012.290517	3.044800
1007.043250	3.311600
1018.782783	2.544600
1009.645633	3.054300
1010.101017	3.008200
1003.889367	3.364900
1010.472950	2.841800
1008.743383	2.922600
1009.485967	2.857900
1006.600533	2.997300
1011.013133	2.694900
1011.465550	2.636900
1007.821767	2.873200
1006.659200	2.856200
1008.107067	2.706100
997.063533	3.256800
1002.772517	2.868400
1002.759450	2.799800
1007.023900	2.516600
997.067067	3.038500
1001.455117	2.759800
998.256617	2.946700
996.445033	3.039600
993.453050	3.063200
994.287667	3.007000
982.909333	3.660000
992.989767	3.046300
990.521000	3.095600
989.570750	3.091100
993.227917	2.782300
995.866750	2.625800
990.314567	2.904700
988.510733	3.010200
985.375067	3.089500
982.660450	3.212600
984.946650	3.054200
987.563500	2.871500
988.143467	2.826400
981.825500	3.202100
987.259850	2.852300
987.676067	2.778100
986.785483	2.818200
984.975667	2.901700
987.670083	2.736900
990.536100	2.418200
983.986183	2.766900
980.531033	2.911200
981.577600	2.831300
977.646117	3.075700
980.941250	2.880200
974.549167	3.122500
966.173667	3.625900
976.552067	2.929600
975.220483	2.986500
957.156400	4.091000
970.301283	3.304500
974.730883	2.910000
974.837033	2.877300
960.228900	3.729200
975.494500	2.822000
977.157067	2.615200
978.951817	2.448100
971.216033	2.861100
968.897233	2.992500
969.823117	2.915200
974.605517	2.607100
967.132600	2.978900
961.853917	3.217000
965.385267	2.974000
967.560933	2.832000
957.366267	3.423100
966.628683	2.761800
973.272300	2.331800
974.838983	2.178300
967.138000	2.612300
976.148283	2.040300
971.447983	2.311200
960.133017	2.847700
958.278667	2.931700
958.582150	2.885000
953.979200	3.146600
963.756950	2.556200
951.897200	3.247400
961.603350	2.679800
962.149550	2.622200
953.393417	2.919700
957.932867	2.653000
956.719367	2.706700
958.124200	2.603000
956.049300	2.565500
952.985200	2.754800
948.292317	3.035800
951.088283	2.847300
955.591950	2.510300
947.562000	2.906000
937.883667	3.446200
950.182150	2.683100
945.855017	2.936200
940.278333	3.252900
941.815217	3.139900
943.047417	2.980000
944.995133	2.838600
938.459617	3.181000
928.653483	3.772200
935.999567	3.351700
935.798683	3.370800
941.034950	3.014900
941.079950	2.987900
944.004833	2.793300
935.623933	3.298800
935.763150	3.147200
932.847900	3.289400
945.318400	2.525300
941.796367	2.674600
943.201450	2.555900
939.919667	2.764000
939.485767	2.727400
935.974250	2.829500
930.828017	3.088600
931.324717	3.025000
940.728500	2.442500
931.394733	2.970300
935.531050	2.667200
929.368800	2.915900
926.576800	3.071900
921.080533	3.382800
924.669233	3.155700
929.269633	2.748000
933.160017	2.497900
928.467883	2.692800
924.835917	2.902300
926.005417	2.837200
919.177267	3.258400
923.245450	2.861300
923.348100	2.846300
922.449467	2.896300
914.521350	3.350900
907.721017	3.656500
917.111750	3.076400
926.369750	2.486900
920.838900	2.791700
920.024067	2.784100
919.582800	2.791700
918.403383	2.863500
919.723617	2.764900
910.922567	3.185500
918.102950	2.678000
915.890900	2.805800
913.644167	2.904100
918.690133	2.580900
911.353583	2.959500
909.595067	3.014500
916.790683	2.553300
913.382517	2.733700
920.135617	2.326900
915.730917	2.570800
911.496717	2.752900
908.755417	2.877700
909.733117	2.781700
904.924083	3.069900
909.470850	2.790800
911.132483	2.669700
908.365217	2.632000
904.541967	2.872600
914.678450	2.241800
910.063433	2.512500
905.320550	2.661800
905.008517	2.624200
909.586117	2.285800
908.291050	2.341100
901.371100	2.735600
904.034067	2.566600
894.545333	3.020100
905.131817	2.386000
904.257367	2.413300
897.843450	2.778800
896.207683	2.847000
900.603517	2.543500
899.288633	2.584800
900.378367	2.490400
899.022967	2.543500
902.309000	2.325500
895.219400	2.728100
894.954983	2.606100
893.006683	2.708400
884.618250	3.130700
882.948333	3.233100
898.003783	2.319600
891.426917	2.673100
883.422450	2.981300
894.619967	2.318800
886.984317	2.771800
896.419017	2.197000
893.254850	2.246600
884.234050	2.723900
888.448183	2.422200
886.105983	2.532900
883.000817	2.722900
893.657267	2.066200
888.039133	2.330400
884.127650	2.485100
883.120633	2.518200
887.691233	2.206500
881.527217	2.575300
878.823533	2.744100
887.774200	2.191400
888.481900	1.966700
869.881183	3.072600
875.032400	2.769200
880.105317	2.458900
874.711517	2.675200
871.355400	2.823800
873.260767	2.671300
876.306317	2.457700
874.233050	2.572400
873.368467	2.622100
870.831833	2.690700
876.170550	2.323100
867.700933	2.764200
864.003433	2.996700
865.068717	2.813800
865.824117	2.730100
861.206350	2.963900
868.457067	2.515300
866.822533	2.605800
868.991083	2.445600
867.490067	2.508100
865.802967	2.614900
866.943050	2.506100
856.099300	3.023900
858.454450	2.882300
864.124900	2.534300
862.694467	2.619400
852.824300	3.071900
857.663383	2.766300
857.408933	2.764200
857.575233	2.757900
861.981317	2.475700
869.842400	1.978400
865.306917	2.101900
860.670867	2.338300
857.576883	2.461500
856.239267	2.529400
863.005117	2.101900
856.862700	2.442500
863.438233	1.902900
849.622633	2.692500
846.648933	2.847000
853.981017	2.425900
852.332800	2.451200
842.703233	2.944800
846.135950	2.697200
850.264833	2.422800
854.124767	2.177200
848.010917	2.546800
849.391283	2.398200
846.982883	2.445600
849.439367	2.282800
846.985317	2.415700
840.602983	2.791200
840.236550	2.687600
834.677700	3.001400
844.775783	2.337000
845.654883	2.287800
838.678800	2.697200
842.730917	2.427400
840.131317	2.511700
833.219967	2.963200
831.340800	2.951900
837.389100	2.551100
840.961217	2.326000
840.270833	2.348700
841.286400	2.174600
831.800750	2.689100
822.949150	3.146000
834.046683	2.510700
844.948133	1.892400
839.928683	2.132400
832.964567	2.458900
821.236117	3.085000
825.195883	2.843400
824.336617	2.900200
836.082750	2.180900
826.402817	2.775100
832.354600	2.382800
838.553917	1.858600
826.157150	2.565500
828.794250	2.415200
830.737733	2.277900
832.125967	2.137300
834.196333	1.984200
835.482483	1.821600
831.641750	2.040800
832.981400	1.906400
827.981650	2.178800
823.799817	2.326300
822.758583	2.337600
827.165500	2.028800
820.216517	2.408200
817.494617	2.573500
813.253000	2.807000
815.671650	2.527100
817.500283	2.390700
815.229050	2.515100
807.644517	2.954200
808.022067	2.900200
819.156667	2.186200
823.300200	1.905500
813.636317	2.413600
814.727050	2.354000
822.187633	1.856700
819.210767	2.028400
809.348917	2.479900
806.664650	2.605400
814.866333	2.065500
811.447867	2.250100
807.248683	2.477100
807.596367	2.420800
805.842017	2.406400
810.415817	2.125000
804.538000	2.466200
806.091683	2.336400
806.571700	2.238200
805.840050	2.276000
789.211117	3.229900
794.160317	2.908000
805.624533	2.214600
813.109950	1.752200
802.997617	2.306800
800.644683	2.283000
798.352667	2.409100
796.454917	2.503900
802.891333	2.101800
800.631817	2.084500
794.685667	2.409400
789.057183	2.715900
793.003483	2.458500
797.607000	2.162300
794.618667	2.341300
798.964033	1.980300
792.589417	2.320300
788.649200	2.503100
798.091100	1.926500
791.963933	2.278800
800.338383	1.765500
792.285433	2.105400
790.645450	2.130200
793.165067	1.960600
787.589433	2.242800
791.267517	2.013100
790.467483	2.055600
791.189317	1.958200
791.225267	1.895800
786.053717	2.174200
793.511150	1.724600
785.999450	2.155400
780.814017	2.448100
779.378650	2.508200
779.523467	2.327800
781.397533	2.196000
779.651700	2.261600
782.166433	2.105400
776.227967	2.329000
774.681567	2.413900
775.824267	2.306800
776.147417	2.247100
775.094817	2.306200
776.003167	2.264800
774.516517	2.311300
781.352467	1.864000
768.687967	2.611000
771.680633	2.425200
774.635400	2.172500
775.106500	2.132000
778.062300	1.876700
775.643517	2.037100
764.825633	2.663400
770.062500	2.342900
772.678650	2.073800
774.046600	1.955000
772.631083	1.965900
769.965200	2.081900
784.695383	1.163400
772.773867	1.878100
772.768533	1.789800
762.130667	2.329900
766.623833	2.037000
758.998283	2.452800
755.466600	2.672000
760.602517	2.340100
754.278017	2.703700
764.327333	1.973400
761.320433	2.133000
758.270467	2.306800
762.080483	2.076900
767.629500	1.563500
754.912450	2.322200
749.870933	2.588700
749.802633	2.605800
751.708283	2.411700
762.366133	1.767300
756.510650	2.075300
754.844867	2.147500
763.205450	1.551500
756.514750	1.979300
759.402683	1.800000
754.186333	2.076000
757.492233	1.729800
750.835333	2.141700
745.668667	2.412400
750.115033	2.152200
745.924533	2.379300
749.316667	2.073400
749.802783	1.985100
743.123183	2.343900
749.459083	1.983600
749.154317	1.987300
751.202200	1.825100
746.560817	2.065000
743.767783	2.207100
748.890333	1.867200
747.477267	1.933900
744.161700	2.125100
745.431367	2.036500
740.184133	2.291100
742.097467	2.134900
740.732550	2.209400
742.642017	2.104000
748.740850	1.631600
746.038717	1.708900
734.416767	2.317300
736.877433	2.172000
744.079400	1.703600
732.291350	2.420300
734.265933	2.241900
729.389817	2.461000
734.732867	2.120800
744.485667	1.468300
738.516400	1.806500
731.275867	2.243200
742.054083	1.577700
737.679433	1.720200
735.197150	1.857500
729.816300	2.159000
727.334217	2.296300
729.609433	2.031600
726.757533	2.168700
729.969850	1.926200
739.489367	1.344100
730.708867	1.852600
731.923400	1.763300
730.117417	1.717300
721.016283	2.241900
719.644117	2.306800
728.702317	1.759300
716.766517	2.342500
716.722100	2.304200
722.189017	1.939600
722.102517	1.904500
728.344650	1.509500
719.681033	2.040600
720.961750	1.887200
715.237183	2.138400
722.895400	1.672100
722.097317	1.675900
720.126700	1.768100
716.825833	1.945200
717.093867	1.941400
709.448083	2.326800
719.327383	1.712100
718.886033	1.724100
721.556300	1.545800
716.826150	1.684400
716.389750	1.669100
708.431383	2.101500
707.427833	2.146800
707.608983	2.093700
712.528050	1.764200
709.148967	1.981600
710.393750	1.870400
702.599933	2.348700
703.980200	2.222900
713.105783	1.478100
700.087717	2.254300
701.146033	2.148300
703.850850	1.942400
692.387650	2.612000
698.801517	2.199100
702.257450	1.965200
697.186450	2.258300
708.399217	1.586500
705.611083	1.734600
699.422383	2.082300
698.224367	2.132800
699.926150	1.998200
698.784217	1.886500
701.673017	1.669900
701.703283	1.617900
696.824267	1.909000
696.068300	1.937000
697.341467	1.849300
690.902517	2.102500
692.188650	2.003900
690.635933	2.016600
693.225950	1.880900
691.878283	1.936800
687.821817	2.182900
690.899117	1.931800
692.650367	1.815700
694.660117	1.708900
691.402667	1.872400
684.765467	2.232400
690.131750	1.867400
692.299667	1.708900
689.678783	1.843800
695.976367	1.444000
690.292583	1.755300
681.883750	2.230100
686.316500	1.834700
681.369983	2.103000
686.678967	1.705000
680.934517	2.038600
676.922000	2.261300
681.673083	1.980600
675.733533	2.209500
674.542633	2.226900
674.612833	2.171700
676.684100	2.060300
678.612733	1.935000
674.901483	2.126400
677.466167	1.890700
677.230533	1.911300
670.890417	2.252800
666.753350	2.474000
671.605633	2.084400
668.617783	2.207400
667.176283	2.268300
670.905850	1.997300
674.379567	1.787500
664.108417	2.374300
664.223733	2.289000
655.447283	2.726400
663.228700	2.236400
670.602567	1.757800
664.846317	2.093200
668.532183	1.858800
668.550150	1.834700
668.067733	1.733100
670.818133	1.541700
670.969833	1.495200
668.530983	1.612200
662.972850	1.825400
660.704017	1.929100
654.662967	2.243800
660.042350	1.895600
661.041017	1.822900
661.484317	1.789300
656.203283	2.022900
659.952850	1.775900
646.937750	2.495600
658.980533	1.807500
664.863050	1.430900
658.606683	1.796100
662.294617	1.504300
658.422817	1.633600
670.551233	0.796200
660.568083	1.436100
654.210933	1.781400
656.118350	1.539800
651.322450	1.801700
655.592300	1.504700
654.085183	1.582200
656.087083	1.446000
649.856283	1.793700
657.651383	1.256700
652.084850	1.580600
657.759217	1.212700
646.129933	1.875000
640.248000	2.162300
645.364167	1.847500
640.688367	2.072500
646.427867	1.711300
650.904050	1.429100
641.953733	1.936800
636.380667	2.223700
634.495283	2.300700
637.667333	2.071800
638.227283	2.022300
637.076283	2.057700
648.994117	1.318900
634.141083	2.079300
634.971633	1.980900
643.963983	1.404600
636.036083	1.860000
629.951100	2.205800
634.078617	1.956700
627.844067	2.269600
634.956583	1.755000
638.648183	1.522500
640.685467	1.370800
635.069633	1.672500
631.930583	1.715400
633.883150	1.593500
630.410383	1.719300
633.128500	1.547600
620.342967	2.285800
631.247900	1.632200
633.749733	1.428900
628.442367	1.741600
624.575600	1.918700
635.832317	1.232200
633.231000	1.358000
633.309533	1.315500
625.985067	1.597000
621.847217	1.801600
624.055867	1.656400
622.758967	1.722100
627.125783	1.335000
621.430050	1.617500
630.751667	1.027000
628.879267	1.096600
617.625367	1.747600
616.224933	1.823100
612.020717	2.002600
607.851383	2.172600
602.903317	2.461300
610.390367	2.025100
610.029933	2.046000
610.702433	1.988400
614.606250	1.724600
618.285350	1.322600
612.550900	1.685600
606.633400	2.022500
612.192500	1.654400
613.511133	1.428900
607.461750	1.795400
605.493950	1.860200
609.489283	1.602000
609.242950	1.611800
602.383000	2.033300
606.216967	1.728400
598.644317	2.134000
597.310800	2.152100
607.552933	1.547400
610.621233	1.322700
598.792733	2.005200
618.827317	0.691300
602.981017	1.587100
598.959667	1.798000
600.020067	1.744900
593.985467	2.114200
591.772483	2.136000
597.444250	1.778300
596.991700	1.760600
597.563200	1.749200
596.292767	1.832800
596.588550	1.788200
593.294367	1.856200
597.234217	1.603000
600.596017	1.339600
598.620250	1.440500
595.340333	1.587600
594.676900	1.613600
592.642800	1.616900
587.829150	1.861700
602.089167	0.946600
591.778350	1.566200
598.100183	1.170900
594.075500	1.389200
582.136550	1.908200
589.809383	1.453800
580.645817	1.971100
586.423683	1.641300
583.185333	1.797600
582.201683	1.757400
585.365167	1.539700
583.934900	1.584500
583.679050	1.562900
579.242767	1.813000
581.725867	1.669300
580.299750	1.629500
576.268650	1.834700
588.067483	1.075500
583.414800	1.346000
586.381067	1.147300
577.919900	1.615100
572.108367	1.843900
577.767867	1.487800
575.472117	1.624900
570.849750	1.897100
566.710750	2.049800
558.099933	2.513100
557.779567	2.490400
571.943083	1.674300
584.750350	0.911600
573.285700	1.576400
570.196300	1.700600
568.732667	1.687900
564.480133	1.916700
562.017267	2.020900
567.791800	1.680200
572.187000	1.400900
567.162067	1.656400
564.166233	1.719300
566.665800	1.562000
570.043650	1.360100
571.498167	1.231600
563.103417	1.637200
562.236817	1.642900
561.734783	1.602600
555.505483	1.959300
559.222633	1.749300
556.800733	1.906200
564.110250	1.348700
555.606900	1.795100
560.814983	1.407300
560.026900	1.454900
557.378300	1.631900
562.019300	1.333100
550.016583	1.944900
557.026133	1.485900
546.169817	2.100700
553.329083	1.674300
558.210033	1.389300
555.703467	1.514800
549.450100	1.836800
557.110467	1.269100
559.710133	1.123500
558.541567	1.173100
552.481400	1.489400
554.795483	1.242600
547.151633	1.661700
546.871233	1.619100
556.039733	1.057200
543.246183	1.803300
550.997700	1.356200
546.420267	1.501000
546.013833	1.482900
540.257883	1.768800
540.327717	1.759900
541.444867	1.662700
540.025283	1.744200
544.923417	1.331200
534.637467	1.927300
534.025450	1.967600
537.998883	1.712100
536.833450	1.712900
537.756267	1.578400
535.567083	1.657200
538.552400	1.463000
537.353700	1.509500
546.868467	0.924700
539.897283	1.274700
542.116367	1.028200
545.948533	0.787500
532.007817	1.604800
538.471800	1.226300
531.796383	1.576200
536.645783	1.288500
533.696950	1.334300
537.294033	1.072200
528.650533	1.580400
524.641483	1.788300
519.892917	2.045800
533.118767	1.253200
525.843500	1.572500
520.515450	1.839500
529.501100	1.325300
524.315700	1.613000
512.219250	2.159900
521.608650	1.617500
516.072867	1.950100
520.010800	1.720700
523.323200	1.448900
524.480650	1.300400
530.414400	0.947900
523.853000	1.274300
520.145033	1.482000
523.218467	1.282000
523.113000	1.280300
521.210900	1.337600
522.989350	1.195700
528.638333	0.816000
523.206717	1.152100
512.663367	1.762600
518.847900	1.385300
516.095333	1.442700
516.674650	1.369700
522.412200	0.964100
515.140200	1.397000
518.044033	1.206600
510.725583	1.630200
518.718617	1.043800
514.614717	1.235500
513.147600	1.289300
510.575233	1.446000
509.958933	1.418100
509.798867	1.387900
514.857417	1.066300
510.735317	1.265500
510.465083	1.263000
515.220117	0.962500
505.251983	1.517400
503.784167	1.492900
505.104783	1.415100
504.984217	1.362700
500.312967	1.627900
497.979950	1.743800
503.659950	1.395800
499.157833	1.561200
500.561533	1.436100
505.291817	1.130200
496.197883	1.676700
495.272083	1.680000
498.108633	1.471800
495.728000	1.520000
492.563983	1.699500
488.266267	1.939600
492.784517	1.694200
495.884350	1.449800
494.388650	1.497800
503.989817	0.891400
490.653317	1.666900
490.170233	1.670400
496.030317	1.330600
494.692783	1.332000
497.934517	1.033000
493.799483	1.257000
492.703200	1.322300
494.700150	1.164800
492.852200	1.126400
484.828017	1.584700
488.326050	1.326500
477.918967	1.966600
495.907483	0.874200
492.301317	1.083700
492.274567	0.926800
488.223050	1.124900
484.301533	1.315500
485.181150	1.250600
485.611967	1.179100
488.033400	1.045400
494.760133	0.504600
489.577367	0.764800
484.458933	1.041000
476.154483	1.474800
473.250917	1.677400
479.182150	1.303700
472.438017	1.696600
480.360050	1.187000
476.328583	1.425000
480.583500	1.162700
476.371050	1.385300
477.012767	1.229500
475.344317	1.318600
479.740600	1.031000
469.217050	1.658300
482.123450	0.749000
480.054933	0.842700
472.141800	1.270100
476.544133	1.011300
480.583067	0.679300
476.073017	0.956200
468.521717	1.379200
476.219067	0.927400
478.472633	0.668400
465.922583	1.371900
463.776550	1.441400
467.454550	1.205300
470.878483	1.003800
472.175417	0.916600
468.197917	1.037500
461.427217	1.402000
475.001133	0.591300
463.318350	1.278800
457.051567	1.616800
462.821967	1.175200
458.869183	1.361100
467.954850	0.781400
463.484850	1.010600
465.614567	0.875200
465.724750	0.882200
455.714900	1.338800
455.782017	1.331200
452.239550	1.509500
461.786733	0.954900
467.445767	0.539200
456.615583	1.149900
451.710600	1.349600
451.889333	1.350000
455.233017	1.170400
459.257433	0.910200
456.282617	0.993400
453.713467	1.079500
454.037300	1.022300
457.650567	0.760300
464.701050	0.313700
455.380200	0.865700
455.471850	0.773600
440.658167	1.603300
448.480300	1.134200
439.800033	1.561200
446.917867	1.109500
452.598350	0.759200
444.485750	1.236800
446.067817	1.075300
441.576483	1.311900
451.077333	0.735900
446.589250	0.982100
449.364667	0.753100
449.390000	0.702500
436.364283	1.461000
446.524333	0.823800
441.437983	1.125900
432.050717	1.683700
445.709050	0.774500
437.271167	1.233700
435.104833	1.315500
445.587100	0.692600
437.326983	1.176900
443.070067	0.818500
438.863533	1.029600
435.556633	1.118100
441.587117	0.742000
431.380317	1.316200
437.059500	0.939200
433.359217	1.049800
433.717133	1.020000
438.801517	0.637000
438.498817	0.663400
426.134450	1.374200
436.154417	0.758800
428.340383	1.100400
421.044867	1.520800
421.315483	1.453200
419.648500	1.538900
421.007983	1.467600
424.012383	1.273500
433.189733	0.603900
421.069217	1.320700
411.895300	1.845200
422.203200	1.250600
426.071050	0.937400
427.890600	0.746900
426.833283	0.757500
416.379133	1.368600
412.057200	1.615100
412.370133	1.602000
419.958283	1.136700
418.846867	1.152100
420.879367	1.025500
412.875150	1.501700
413.038650	1.479500
417.621983	1.062300
422.090483	0.775200
417.403583	1.023300
426.571017	0.450100
416.761300	0.947600
414.140267	1.104100
410.614750	1.310900
409.863517	1.337500
419.218633	0.635400
412.327267	1.027600
412.657883	1.011600
414.489333	0.893700
414.104317	0.733300
411.387517	0.895900
409.570233	0.979800
412.439100	0.809300
411.759183	0.806700
408.267500	0.899300
400.093850	1.382900
407.985650	0.917900
407.335600	0.914600
406.944750	0.901100
405.243217	0.988300
407.761550	0.835100
413.212267	0.467500
405.413567	0.787600
407.928917	0.613900
395.100733	1.354800
398.697767	1.150600
398.331450	1.080200
393.777600	1.310900
397.584817	1.035400
399.177133	0.939000
404.841500	0.573800
394.078667	1.191100
390.734200	1.301600
394.147767	1.046800
396.224150	0.890600
396.998183	0.813900
391.904983	1.118400
395.968250	0.860300
386.896567	1.310200
397.677117	0.593800
397.393750	0.586400
392.373600	0.893300
389.715350	1.004300
392.186783	0.806700
392.263667	0.765400
393.068067	0.657400
386.860550	1.000100
393.586633	0.609300
398.899867	0.259600
398.195200	0.196400
389.258167	0.691300
391.499467	0.558100
385.483317	0.910000
382.889600	0.961400
382.173067	0.976000
381.750917	0.927400
381.828800	0.923900
375.635617	1.306000
386.324633	0.652500
379.675083	0.918600
375.549983	1.125300
373.823600	1.205300
379.349750	0.841700
371.557233	1.294500
377.988117	0.919600
373.851583	1.113300
371.978750	1.145000
376.901117	0.855100
378.767467	0.720700
369.556983	1.263000
369.511400	1.268300
377.074100	0.792500
371.283467	1.008700
365.624300	1.327700
368.969467	1.139800
363.800483	1.425600
373.612517	0.769300
374.071450	0.728000
370.439683	0.930300
360.776733	1.495800
370.995533	0.838200
370.498350	0.840800
377.342900	0.334700
370.904783	0.654000
350.650433	1.800600
358.498583	1.349100
365.688567	0.927700
370.467250	0.632300
368.209267	0.610000
365.216933	0.782700
376.219150	0.121400
365.941933	0.696900
366.946700	0.526700
359.758967	0.896800
355.025083	1.110900
355.972867	1.065700
360.241083	0.810000
356.821950	0.974600
355.935300	1.034600
352.163050	1.115000
354.752100	0.945200
348.367117	1.302700
354.257367	0.925900
358.047583	0.696600
358.779750	0.640400
